label,flex1,flex2,flex3,flex4,flex5,acc_x,acc_y,acc_z,gyro_x,gyro_y,gyro_z
A,1565.6634181546694,2573.306594137644,2556.7541854225797,2653.4111700299904,2388.3277879668785,0.21672242002396228,0.127196791443841,9.81378907460612,-0.0016423869370987172,0.0045095891535499085,-0.0010057005521619863
A,1591.407012524145,2393.535645445661,2533.5650546327993,2567.946437869414,2497.393747927138,0.04768468866110651,0.116764384233684,9.690097579532488,0.0023946029285922335,0.03448853110643401,0.011622197268820241
A,1649.0983467605665,2561.818435952129,2471.1814992266213,2473.123060673754,2519.2410756438426,-0.012720052164433532,0.16787075514471594,9.925335981690464,0.005605514433454162,0.0068097540670804,0.002727815138944288
A,1531.8169846426606,2461.933917864666,2665.615294299437,2667.2704741005286,2479.1093353327524,-0.1288299371081746,0.28327964234237485,9.804688023420697,0.007366680958597457,0.0274500899354905,0.01839748026112955
A,1575.33313204482,2540.6658720145183,2652.8312425915933,2663.1483489059924,2526.315340804798,0.22908733401779435,0.1130683926810866,9.671008128497375,0.017943224021026417,0.03946494688467392,0.0211230951710574
A,1529.5747134583833,2368.848961079329,2538.138360864291,2573.512494130703,2695.431758045511,0.09455491433893601,0.19452295988488882,9.737349652537253,0.015602742111251702,0.014347492773992512,0.006131611656322521
A,1552.2828342269233,2621.3736915504933,2437.1647243777993,2484.3246723397874,2492.515354399221,0.07085407677561747,0.16646000683566714,9.843092986325829,-0.0017064324159211212,0.020193526928811406,0.011490970828634593
A,1472.1489690209294,2480.6416665028682,2542.2020495245415,2433.2083199961335,2469.0526331596757,0.12477091908699656,0.21186487153552808,9.802815176167295,-0.004297261735326399,0.021722373153229044,-0.005070347120331369
A,1507.5562393892178,2548.3300859312117,2527.4729474612554,2441.84120422121,2569.223123416922,0.07306211779938693,0.14066088759813383,9.819103620980894,0.00045491777722663114,0.023024463272213417,0.0005074479834809124
A,1429.4816479088538,2367.1055246496862,2599.0718767682997,2437.060073797371,2504.8306695343845,0.09814020771389012,0.21455908768036436,9.985769447571764,-0.000858834237399091,0.03379875098003539,0.010459423615118356
A,1572.4391109289759,2711.246981047404,2482.832386728594,2470.7570310422357,2391.9596874387757,0.12722378133967718,0.21821757805848288,9.78021253746119,0.011012554289303889,-0.001959573031090088,0.016447008359085153
A,1515.5007934771982,2472.095294425457,2557.1532929018495,2459.794688376989,2590.3100418738854,0.06513616586528492,0.09412085791271965,9.618935540194778,0.023347027329796974,0.006642382524451613,-0.0015739119541949512
A,1552.5994517917316,2544.6730459846794,2561.955907670801,2441.9598836910536,2732.2643427514895,-0.044607042303876604,0.26948030298735,9.8242180084282,0.01568573618905019,0.01824555096240452,0.015980150121450334
A,1510.7686041260881,2555.4504373120053,2521.2337801340577,2754.218366845906,2540.628606681225,0.05449729205923128,0.07837987374359322,9.744777410712661,0.02189367880621356,0.02212355808330187,0.022441903340000686
A,1473.853381642994,2534.721265446435,2556.102687328455,2643.183582936161,2532.948505766195,0.023731789814807835,0.18944460629295226,9.622230096904662,0.018889251883059847,0.016573440208214635,0.004751363698644945
A,1575.4516248369687,2542.6638366680777,2582.077816289028,2462.8250651548656,2646.577932730659,0.16166767107467836,0.06136386726277257,9.752998544571133,0.023687205763104447,0.026585014938953738,0.004339185647432959
A,1354.8174010872506,2497.113288047537,2423.8272040515326,2578.058711737205,2333.948551201039,0.21055068368399985,0.31508690225419783,9.843859186605576,0.022754216109403355,0.02417876637221791,0.01714836214868374
A,1626.4178361639836,2572.7554337993543,2438.4691784508923,2469.987409049363,2467.305123747222,0.03539214805562367,0.22647856843939215,9.838651567155797,0.0008123809010219148,0.01952399096076852,0.013700970167144359
A,1587.8786836061038,2593.502200095861,2321.530169978612,2764.7255957042926,2546.000466872601,0.10044407272313217,0.22763414392685688,9.805456248594583,0.021722367819928756,0.027189278125997245,0.024765327839394384
A,1539.2452920945211,2581.7382798762806,2599.1696244589175,2532.658980799607,2551.757299019969,0.072244556550395,0.30723826249410036,9.868947572714319,0.002128108561502095,0.0267870506948304,0.01791172438744247
A,1452.3621199219942,2451.6092823247936,2509.4358735279,2484.7736559594864,2553.713180304173,0.08219435724764733,0.2716036985061113,9.666315034748969,-0.005895324375774077,0.013472799654805506,0.004412504615916463
A,1387.3280743270184,2592.5167382312675,2466.7520265702424,2483.3692086931305,2440.171827981418,0.09932140832350417,0.26082533871854074,9.790736983007093,0.009169280456051776,0.014812343033073584,0.014424422242495138
A,1517.5335211313625,2367.0006839412117,2558.612489392765,2485.769875771735,2588.440113682602,0.09763170554833009,-0.013064306065526499,9.888017948023206,0.005615074453405325,-0.0016272324246716235,0.012684743819682955
A,1460.5991357716443,2541.4620682649875,2514.9040620575847,2600.8544005474296,2633.842638370165,0.16490635543057663,0.20167113378225576,9.590349182477402,-0.005743707213794637,0.04209442491734654,0.013342956493282859
A,1546.8157536991198,2356.2893386837072,2510.6595683167056,2644.468268873979,2513.0500750284255,0.17663753407649174,0.2890026915229262,9.948946025562629,0.006970656835667229,0.04447514858222233,0.0067536448192525664
A,1551.1289688899883,2686.864669854224,2452.2280287674193,2681.604338922649,2649.3762664193778,0.07412570539237193,0.08701006891424796,9.858643112146744,0.0014307735339134948,0.0206775299704726,0.006172181452624799
A,1380.749348400628,2437.641919264424,2498.67032256424,2446.6320557576273,2429.402997252477,0.12110316431496321,0.36961503052823275,10.019555954185918,0.02770766230578952,0.028572429783972765,0.004422837510594895
A,1346.4405970674027,2523.316161136072,2441.9901929462353,2582.713680792872,2512.687142084631,-0.010723879584164236,0.15343906054226134,9.755590364711619,0.0038984651500835943,0.028492332711465077,0.012828381988961347
A,1506.6913903888333,2352.018471013397,2686.172886383321,2423.858253910177,2519.4203074739967,0.17062822171726677,0.21029722663898984,9.8071391040597,0.00777413749595615,0.021531721248674394,0.016573041494494237
A,1584.4424957782514,2562.250482526515,2540.25562697835,2616.124975760957,2439.722239592712,0.07004535811568913,0.3585546853040151,9.784633217895713,0.002006532524699319,0.014301364193381492,0.01670666042781812
A,1445.1514508168116,2558.740453219248,2530.4988128455116,2485.6398861471184,2639.887151386254,0.1557211262104183,0.25579256231678793,9.774498118359334,0.02035256324149673,0.016552532979265157,0.0020625406560936532
A,1598.0898358385436,2454.014051425538,2345.4174930034537,2452.1344717707307,2473.587382286051,0.0847353541291337,0.23705624877770873,9.781359849731608,0.010372234938315709,0.003816290795263126,0.010185658120577028
A,1315.389760295709,2337.7139911412387,2488.5992005334624,2525.8147747117678,2456.2782829801,0.06892404611725698,0.18986573991437716,9.770930368265294,0.011831512433217131,0.030009440084291544,0.019027445512541666
A,1491.4351256896443,2510.6081159182154,2514.996155458856,2586.33582242729,2504.9275690010086,0.09651335975740072,0.4177738290446116,9.831979806634475,0.01934308230659028,0.01658410203778893,0.004388314088762092
A,1515.7082750136597,2483.7926933845097,2515.725857610269,2586.5134889737324,2418.221042119051,0.21193028673163627,0.05239804229799791,9.879310818813208,0.012379640267127548,0.019442876260514507,0.004602458007438137
A,1525.5902245601403,2494.9852619533635,2397.7842892868543,2648.7686602806366,2401.423246549711,0.13566067803198517,0.24927189567742392,9.653841356402948,0.017638798178197038,0.01932987728588224,0.005667469150405357
A,1742.8033830859993,2678.0502280599503,2550.844861164741,2484.827855528225,2470.0379872927324,0.0969897466574623,0.3327791099177457,9.743682613294332,-0.0024641556646945954,0.01044349645710105,0.005627607951504868
A,1560.8588596850177,2652.036428539868,2508.946859793234,2494.9030014453037,2560.4695828016634,0.07158859303732128,0.3174559833296408,10.010495417544696,0.023312677525269693,0.008363338407461219,0.016305304565636218
A,1451.6827583579627,2511.8975134458346,2454.8363197718704,2563.9160488796347,2484.47718713945,0.04795050254317033,0.20666884342815117,9.839109199032608,0.011702386083774358,0.02896808602173982,-0.004988202999170497
A,1268.6567939670144,2324.72523902387,2500.2995438669113,2498.2164112037285,2569.52886373809,-0.013949515049610353,-0.02430740708573481,9.703252418123556,0.013387909641496387,0.02766618358067992,0.0020806044684407547
A,1275.8066527984154,2594.687332631125,2524.4098455718663,2635.9383395220743,2486.1912478506697,0.23362144431324228,0.23904337074294796,9.780900563827807,0.028270113447111653,0.022845057337627376,0.02226631637621115
A,1240.5957706572733,2543.5193832791947,2535.8653719183917,2707.022208952109,2464.176717578577,0.1550013404638891,0.012415081864453725,9.730615636453665,0.008365549343873374,0.013265697296918557,0.007813098636746698
A,1428.294813397305,2882.360052096296,2490.8928024265097,2557.8044190772443,2467.4292258459423,0.1245434226596179,0.1936750517940659,9.63210335552403,-0.003603770591311556,0.009042692498171261,0.02972736939110908
A,1508.651690808822,2377.2902388966404,2475.2646600123726,2570.548241171056,2550.1858500486474,0.04944919683222622,0.13727105512990517,9.757169028677227,0.01722539392985714,0.008974292078773196,0.009586642283240849
A,1482.781150605074,2475.5825003167683,2499.694092389833,2363.640708907844,2481.536353007501,0.2506925584606644,0.1568676337016728,9.767514916210029,0.011548535348127689,0.016182814050529723,0.009972058562279283
A,1439.9274115681549,2628.3791977721626,2535.7267233004777,2389.7628550812988,2408.619825683885,-0.09565471815789306,0.03023493928424964,9.936539128861146,0.023194599980924314,0.026730712662930214,0.0046199508574412095
A,1442.3506053640986,2486.4956119837084,2432.726644037823,2437.7704005220685,2499.98275288812,0.06048107397147166,0.15889688550239564,9.627155963215618,0.0051502373658721895,0.028640521036476525,0.011653759282569648
A,1484.1348512456568,2357.7200703210765,2538.808559949693,2479.803184051721,2428.423510158671,0.22481921983502282,0.09622298713775275,9.90761893417664,0.006202285252048122,0.011884173399690673,0.01529867359690604
A,1590.8169594673561,2605.8646901470865,2394.194947488778,2517.762907440936,2602.2701262852434,0.01464853601772785,0.11009832235572921,9.770698919090066,0.004861550337488661,0.008423345548370811,0.01904379451590133
A,1610.372945372669,2470.8690555415155,2434.1810170560643,2495.046645843214,2573.109341238713,0.2657278327361169,0.4031085617705999,9.78690878014336,-0.0020551474768357395,0.03260648631531424,0.009448544065033855
A,1359.8812991478515,2602.9396358197173,2429.351734327969,2512.756894400721,2443.5011567898227,-0.16084232401310603,0.10359519211802001,9.976108922293834,0.005214799676455155,0.01916276575407917,0.01967440352274141
A,1600.6701431591773,2499.404456672876,2503.7450222368057,2462.0427281625875,2279.957663294434,0.0898878193770964,0.10243530976109057,9.806362287724836,0.013858190279410626,0.012578585459726569,0.009662607895954614
A,1527.1486011365864,2612.2706253578376,2535.2147239987153,2441.1657524814473,2487.565951633235,0.16171516022168694,0.29408794884367856,9.855491886048748,-0.0036583068147026596,0.019557894076578496,0.025445221848048396
A,1364.7159554330517,2783.5635678753547,2479.6259139457493,2585.349814117552,2587.483708186246,0.010388463933984043,0.1362738861953912,10.03948067485795,0.0002525316025912081,0.03694937287730448,-0.007100727329393311
A,1403.5159739967366,2446.015068292827,2224.007869065643,2517.758643514532,2559.5865376326096,0.1307168037096368,0.1752960157060282,9.78105499606548,0.018360172035026212,0.02113942998445083,0.017676987521134793
A,1524.5839485962667,2721.1502407838916,2584.992944915066,2343.4369054519548,2341.4957115590914,-0.00747255614725946,0.22071976862694503,9.61992244914765,0.01872079186994778,0.005505502245591785,0.013711947857978852
A,1645.6529166970042,2532.558259826532,2520.0692325009995,2553.8904668383198,2359.4705957624637,-0.037437255693151705,0.26975378434952,9.7564079423271,-0.0004063432923112481,0.010549615577056734,-0.005320279493747762
A,1515.2295482693764,2578.791345848747,2610.597802566541,2540.2443930041577,2480.2787352136393,0.05960216972224719,0.19494092180020292,9.796317362200906,0.030118974837633275,0.0010372834967824485,-0.0009263486447980852
A,1456.4983195368993,2525.0095879076457,2496.6119666463915,2520.4673596199323,2387.6099837214033,-0.05410009816920869,0.27245933876661776,9.58396273900241,0.0011011548604687067,0.024383508654601226,0.0006375932922185901
A,1408.0459541420826,2608.9534338415565,2440.0451523091124,2677.178539847767,2529.9549440781716,0.05953092916654376,0.21827341569313455,9.779655358071764,-0.008729586689009477,0.00707190736926876,0.002318392472069093
A,1630.3895179995056,2710.5442846326364,2442.3657543406844,2564.6267809715227,2314.11363547558,0.16031212207618506,0.2847777514111799,9.799687273482018,0.013787571380769135,0.023441455297706488,0.012404627508934877
A,1401.335753097919,2621.73463450283,2569.121529568383,2527.7808195446923,2532.4485210918283,0.24845648940108933,0.0599959533805417,9.799844017895607,0.017229414931224308,0.013305585411003863,0.006494284152594943
A,1448.734217596894,2617.392198311874,2558.1849062688093,2441.360540472196,2576.280400157795,0.07149375734342939,0.09639562818994243,9.744539204702857,0.008838424527999513,0.01095034697509183,0.025928869004623593
A,1666.176859997583,2494.1610844008846,2518.0474636678005,2258.4922337459984,2350.9529034542643,0.0960147971125905,0.17108235271790598,9.839753603266841,-0.005605616432273624,0.017589471610236707,0.010667152903482373
A,1317.7679645940402,2394.903221249939,2391.7364390927737,2507.2724881829795,2481.5711642008487,-0.22232321734660973,0.24480338476879707,10.010281398156216,0.02808779371628848,0.021461635631043766,0.0008957405321604831
A,1421.2223481649,2508.7877524496903,2501.2616353381645,2492.102825364353,2657.7594129826134,0.1594498787057083,0.19491821517780689,9.77443201896118,0.00018784292229161864,0.032493529673239686,-0.0018940513444796175
A,1483.3145328947671,2594.02242647184,2459.19509138083,2527.51129759815,2685.471340726958,0.08146912960204464,0.19273921109823497,9.787976985238211,0.022526751627317126,0.023612364906256296,-0.01404202463601687
A,1724.990628118773,2557.879179941857,2509.9478885375015,2388.279114977531,2759.512234478053,0.08582142824129493,0.22086826917656313,9.708438779954205,0.004858953767428331,0.012686192744705237,0.004461898226721497
A,1440.2029663655346,2413.9822200911403,2502.433411951561,2561.4442546845276,2676.265724150171,0.14319103917394915,0.33330551668734115,9.565963010156079,0.019436227570854753,0.02780596520798528,0.025703862407501277
A,1472.512831109862,2657.300762260453,2536.991061594786,2473.0095452519636,2662.5928835218733,0.1916688637813186,0.24494432548236678,9.804589665903263,0.011850088733215733,0.01467740869230167,0.004515631850380187
A,1529.9765705291443,2370.9385345302153,2336.704944699995,2673.398194802775,2361.181247628233,0.13665905498002673,0.02823089931988984,9.819189110291944,0.013439387777739956,0.01548990244215312,-0.004163048048059836
A,1421.6074861227994,2680.3360467158473,2521.7881438743057,2565.667345551491,2528.6555952730196,0.062453835248726226,0.25104075097072204,9.913711335948728,-0.008759333489767039,0.028254422404842307,0.017210161047925613
A,1531.0322732455259,2472.8549062348607,2500.1856434082674,2460.22471319331,2533.666892332365,0.2186599026750653,0.11373338545306699,9.883824493628559,0.029562722509638414,0.014202290672301884,0.0023817035086028627
A,1363.448273576526,2381.4546136222007,2407.7224833157097,2592.6133232010525,2534.3748122619354,0.11720289709425119,0.30307949986528165,10.051869953527598,0.007357223353094583,-0.0011253962375113898,-0.0026754730786871257
A,1524.0552766253008,2544.848567846418,2469.498124830272,2371.653972887326,2669.6230848435584,-0.004615750595297355,0.16098394756700435,9.964661692262931,-0.004643734565147946,0.02410314462709107,0.006783056106963534
A,1581.4188543040204,2390.4107602619697,2436.8409930227485,2454.6922526338417,2294.6608104734246,-0.05215396750689916,0.07143640981500168,9.842554578406487,0.014782294755687962,0.024536647866601074,0.0019044060792355027
A,1463.4742868075225,2510.891182592514,2408.23828133336,2336.1969556180898,2321.4288197658975,0.2966942675699604,0.02173561618553771,9.867575897793158,0.008565129297591869,0.014680474585349605,0.00487934802278854
A,1597.8188123314828,2387.5509311300198,2595.748993638246,2585.5574727075586,2671.8857975362816,0.030128060681299987,0.11907508438600307,9.646241564525305,0.012780284919073629,0.024625566813196248,0.025022165739331546
A,1452.7418326287448,2473.905398701864,2442.6718559329734,2616.0603511723057,2565.985632031934,-0.00490402431332497,0.15342678396731985,9.943880897430006,0.001086787925017511,0.02639712006268017,0.012039650292689497
A,1369.7593035142952,2710.912764008473,2458.935822331596,2570.14250588257,2601.9000451598486,0.16606894241399622,0.12280313587659777,9.73625567383509,0.025997646251787687,0.028350951388351767,0.02185254680392821
A,1402.7427704074198,2569.4996014266785,2423.0158143194476,2467.778995015446,2610.621868855279,0.011159331876098993,0.02562888942068836,9.838540211494605,0.016259461689812772,0.022832171432935408,0.018046523975749844
A,1534.0378024089857,2716.3914691677924,2586.214174784205,2448.3920710341085,2514.085379009399,0.09557329269181455,0.41049486446319833,9.66451689407005,0.009632112059833654,0.014337349435482939,0.00694322481959798
A,1716.5656629485288,2542.040066495961,2476.6069475430613,2605.067582609702,2524.3818304987963,0.11507118675603932,0.0317455600926039,9.891375716356498,0.010397835122327306,0.022327805839912757,0.026182050107509937
A,1550.0910143725532,2478.288271179281,2490.3399956621934,2510.828132891932,2427.933108822433,-0.021141662195648614,0.08633897953525585,9.720352990413225,-0.004981266320765499,0.02907795219586469,0.020079849208510504
A,1316.925167402729,2284.0653230914395,2436.2903598064,2402.8884970253544,2464.0963544620026,0.20099873049589656,0.16283112372328612,9.79633336723024,0.024953784069782783,0.021967431699484695,0.006660524576516785
A,1444.343746957398,2481.459885053353,2617.4768898299144,2550.6984781656856,2633.9481579431867,0.05244785184411738,0.19900231331539897,9.659989144131535,0.03115209476258693,0.024738094003532503,0.009021452439044383
A,1433.2509008348388,2249.599202281097,2601.7889869513237,2712.435264293874,2503.8730190599213,0.10911115660904581,0.04914188000394734,9.720397853027189,0.010906502653278092,0.01650861471319479,0.02969016757387824
A,1416.019996758692,2300.375730891072,2505.7214653828855,2542.5198724087522,2510.6594813444785,0.07916999123712656,0.0925366330252015,9.822422440593899,0.006645344511361586,0.02414456657999902,0.006202832685474362
A,1439.7824730104915,2461.5408661381484,2381.123603544116,2378.7506105776115,2401.4274925156724,0.11680198428800709,0.12514047417537533,9.759936006394357,0.0042895131744351105,0.020461543703051168,0.00699963982953862
A,1530.5259081781305,2426.043871462691,2406.4104471065457,2557.8372536910715,2536.3907569284484,0.04825508548875525,0.20774787120894375,9.84531645165298,-0.002167674235103228,0.016117701706338913,0.016607896260948867
A,1479.905885319665,2371.8876175519536,2547.2987880994674,2437.5220751671673,2450.0178506060365,0.08574810868820462,0.0033370335975351773,9.72697492281456,0.0146809965725566,0.030153778331478392,0.009727007229492194
A,1573.518812674098,2575.291074538976,2554.55245798468,2544.7477027399023,2338.3561985252395,0.3224833127037917,0.20798057050246443,9.871263776888888,-0.0011958827208585297,0.01840799564425993,0.022899278929417573
A,1721.1404830160918,2505.161757537566,2524.6082544232,2663.3811208259344,2377.361545092808,0.08724842674479752,0.27926734789779417,9.81432929704545,0.024153552116637812,0.010264902207502303,0.0065714579219173265
A,1626.163480277173,2608.163127229936,2289.6864182990553,2642.1906704152298,2541.057734736618,0.1475518216162558,0.2329224509069001,9.781838583669922,0.011534506833184419,0.026013923000052813,0.012558348296570244
A,1476.9599006217366,2376.290678262952,2711.397658242088,2559.112482500532,2581.923586132163,0.13693573514270607,0.11932729551158754,9.844936790449346,0.013805601168019523,0.01262787446814361,0.014579746254864794
A,1320.5556626830419,2328.7104875489085,2539.8051769266294,2709.338738082833,2534.747917643217,0.1009470168502307,0.1445559392453513,9.887000193416652,0.006382484838313001,0.012981181178997726,0.013370195863885163
A,1404.0547974886579,2578.6997418412593,2494.0124761916995,2531.2728870135284,2444.9667353411533,0.06472953891800734,0.1552752746269261,9.753658530390258,0.014323652435063155,0.02797859655499801,0.012412227098632248
A,1499.4510787312363,2499.465398681322,2399.307431518755,2272.2833452297177,2529.906254192353,0.1984801302446134,0.2872578473992569,9.667366295178743,0.00935438603805559,0.01847371077981978,0.023573721943135915
A,1410.4084744229494,2653.5736965884817,2450.2921250564978,2374.0021874512768,2383.0837799984997,0.13484946628660713,0.17582876623890467,9.673880142279957,0.004571670327067709,0.011082146816460556,0.00025721586853999327
A,1377.53471667236,2545.0151737798838,2529.545262231316,2634.006541943518,2534.6301631840865,0.09812277463254096,0.22037401279977348,9.890197235628316,0.02743174364796385,0.008628556497032234,0.024175909194682668
A,1576.790543341999,2310.1517836389353,2489.0914502256005,2503.453539832084,2461.702048336227,-0.055249167405213656,0.14516068728902778,9.878207052923887,0.02255838371160953,0.029888088272887817,0.012659665235691
A,1499.3527572852147,2626.443047115176,2591.80104039787,2452.1865036625463,2473.1633941832247,0.14408654605825683,0.25469802336848674,9.756417173567547,0.02843239624609193,0.031759818416299185,0.0002561194038826556
A,1254.984299496781,2314.0637788761237,2552.3447415994583,2576.0591854585227,2610.398552874646,0.06168153768490227,0.23262025526317165,9.825839032437349,0.016115957024986208,0.005877149402268718,-0.010257114733028589
A,1644.2039368825835,2476.0161205488653,2490.41445269065,2586.4786178692957,2552.417090848964,-0.02751513937319941,0.4323065975420752,9.81945578465329,4.3474679968942206e-05,0.0065722304985916455,9.942750768822742e-06
A,1485.5539097552203,2638.358383255905,2598.529600436395,2532.916948551646,2644.3890932784097,0.08620295860958953,0.3080432362810723,9.697277031308936,0.01631352115779143,0.021661776929009342,0.029447455757281416
A,1357.3349308334646,2547.0358067041166,2452.1873953929307,2226.156367576529,2492.7640968836536,0.10218517389117478,0.12368547874620317,9.863705929177533,0.013752426705193228,0.01666614474104209,0.022000262434271813
A,1443.7152183143612,2412.5021375193146,2376.7725511491963,2419.2908174058566,2470.124081419506,-0.05935270496994713,0.33099921827766354,9.81334055756211,0.0003255978354547457,0.027453870837090437,0.029100890369457524
A,1468.1391453273982,2513.9819082546633,2570.499903357995,2666.3726769216073,2518.8259661904185,0.1161798199714011,0.23363748031057938,9.908117596931968,0.015490170722275947,0.01275868105057976,0.009887443875733879
A,1570.2728546526264,2526.952590877916,2520.1795408237713,2409.984308059613,2472.4083332376676,-0.01944330932619734,0.17265785965349745,9.88049836617822,0.021196890971613612,0.031952224296644176,0.02114304227417904
A,1546.0606032929054,2496.0607846517723,2588.9794728107004,2424.7612803482366,2350.898573754398,0.060557448848016164,0.2906234210454399,9.858624241812906,0.011805636139875866,0.01123712660716688,-0.004743830245426201
A,1572.8779013509381,2590.0167567867875,2495.8390912866134,2677.8670248940653,2580.911325452694,0.18028524620559383,0.3011618101598799,9.785868653295132,0.0008813077214559102,-0.00037285408315983204,0.006622622758640783
A,1459.317884873659,2410.917877938034,2571.039427996889,2336.3542351468373,2592.820820822712,-0.04614450992145608,0.44712626540374295,9.782513209843614,-0.0004920525504504541,0.0016797470914585687,0.02428984721182771
A,1540.9619130163308,2623.7377015586962,2560.579650816075,2301.4616603752656,2436.4271733880237,0.08905459265008414,0.27983063450135814,9.596296889351414,0.01622258907003377,0.032142111970377724,0.006108108336258744
A,1328.3650539924488,2673.375916635349,2676.911907991168,2525.6762840058295,2495.7683414304083,0.1298812451222824,0.1473071873609066,9.647177736018765,-0.007476979261470845,0.0068411946994295075,0.029571408411057293
A,1591.7890571509668,2450.195802892501,2525.499240322839,2558.242459889735,2379.396543809398,0.12523671268613784,0.31314594245407923,9.624068570911767,0.01851206638912571,0.004421727705002709,0.015238889355666889
A,1509.9881818965262,2473.899328701576,2477.16090002873,2537.8343990849003,2402.207039502363,0.04061810438709377,0.060310082498840206,9.860978619855675,0.00890966434694376,0.01520098786909408,0.006194997462424421
A,1345.8333812512858,2321.272257820718,2556.348632970008,2490.8417952769914,2594.117771962865,0.03651608638319512,0.20651330475754862,9.83675369235433,0.015685024488522395,0.05080806024643504,0.0089540692931988
A,1549.1799598435555,2407.3400626867506,2611.0951510524083,2542.640820082762,2766.8565574072163,0.0588155023092973,0.21913945915666005,9.822054037872215,0.011650334696672525,0.014293273624719577,0.00903975144274956
A,1373.5461320775394,2384.8371316440257,2572.0290589623123,2352.317314176952,2668.35592853859,0.05428693255900491,-0.01832556624502621,9.982203423109588,0.021688296773841202,0.021241166448090827,0.0042941792114187275
A,1340.7974135427569,2709.0443704022387,2458.357679624621,2493.6821553980467,2617.1647469017075,0.23960858499206505,0.12953167518277445,9.647138885628149,0.014347172191832853,0.00428942903852363,0.00950555303697682
A,1395.4182844166912,2448.536983062509,2269.56972173257,2685.676608359367,2439.816474455864,0.13892163661061796,0.16559546175203688,9.612369878704875,-0.010905948486279621,0.005421972303268298,0.01648748787056163
A,1635.031888103261,2608.175824375513,2511.300659689854,2792.9421908781583,2624.872230082564,0.04349249434959255,0.2528511322466319,9.68682553100121,0.003299943751402903,0.0013808290192711403,-0.003455728792648988
A,1716.964858755356,2553.738044446262,2576.91530970431,2537.7602173736223,2537.002255451535,-0.050323833600057405,0.23075621865515603,9.819670900864311,0.014019442022495103,0.021418316067726068,-0.022173445644631126
A,1539.0555561973376,2598.9677657547077,2507.936597644967,2378.0832528512724,2441.266857221117,0.1254820795138331,0.1495603875392113,9.857724475296456,0.0189101878517723,0.014608179746734375,0.0037745428290203746
A,1327.0800769983252,2354.290232816177,2532.10629477896,2572.120175629284,2549.1989241648616,0.17630438069359816,0.3397204367754001,9.68158399039221,-0.002937304062421167,0.021491568565445946,0.008917576503206497
A,1442.3784100193175,2479.6286949390883,2484.001998834009,2559.2333484209644,2419.6170298551006,0.052545273506465734,0.18810637304632227,9.86059142417634,0.00014751289845915498,0.03460575581662734,0.003090476000994476
A,1635.6443328598862,2549.287517462847,2604.0231372538356,2394.1758086780965,2440.9335603009795,0.23235947916087812,0.10167933163178883,9.717514126818248,0.014788838937145134,0.013026038497930992,0.025659983824656514
A,1573.6243482252412,2394.614005363693,2399.58006498394,2484.5207473942282,2433.6292026113233,0.14992441000897763,0.22511485845360696,9.788529411950906,0.005780479434016942,0.017770514196460627,0.02749441280760987
A,1440.8765129933909,2649.7962999803626,2582.745844555684,2576.4483825692078,2639.1788857418937,0.03681013617660031,0.11658080924323935,9.902963710980034,0.00604252328850672,0.02465337664229076,0.018221319431325995
A,1571.206690263559,2670.73591863904,2363.4807421088026,2665.949191020833,2677.33493001116,0.012482151604460506,0.25303793263419433,9.909140144456497,-0.00872927027866388,0.016217273720231084,0.012444566830269404
A,1459.011591964187,2485.246986130119,2552.1043387816967,2447.8779894198847,2677.745136961239,0.22074085306995095,0.27057763981105853,9.783850259097694,0.003250445899210636,0.03183955517947899,0.019171918766134825
A,1588.4032550184502,2689.7208286473647,2456.537829896935,2568.2454860570733,2526.6028990890145,0.12742314846880556,0.19378984671983251,9.657441407124637,0.015654757253295015,0.008170416574189232,0.00794225044262783
A,1614.5572397422873,2628.522688997425,2527.4233884150326,2558.6276194924944,2575.4015870934354,0.06457799968251843,0.13783365190097233,9.662976209128225,-0.003136252402990602,0.01372730400933141,0.009798683337980776
A,1572.579150936439,2574.5236767467463,2451.2341152130944,2451.684661682906,2554.036920438454,0.4121109414877927,0.2754957921820418,9.959280524417922,0.011584221592958738,0.021581850654343326,0.014570534655290651
A,1552.68647074481,2273.3999999585535,2713.9444312265155,2423.171278706315,2592.2967771106405,-0.0528992998259831,0.18228290785514706,9.852574825702757,0.017602435001319697,0.021726976918686976,0.016527221998725937
A,1372.2802648500838,2474.9890083691607,2306.292044423342,2461.685995687862,2516.530749781703,0.015553011028391656,0.05841967970434234,9.722615521713191,0.005759860218862819,0.014576845697002575,0.0003423817383120843
A,1342.8821001157069,2629.777757842849,2407.0980631960233,2493.964327746732,2556.7919744841192,0.08422234649948482,0.35210492501122015,9.946701563315235,0.016592486873740882,0.04725717795001184,-0.005516923454883402
A,1607.8693242691813,2529.867906956785,2296.1446166280653,2578.8203101797817,2374.7378582950946,-0.02173168918295891,0.2036794378337497,9.926649075490182,0.02776984746617884,0.02011364274512049,0.014635619213727677
A,1356.6059408984654,2445.0882534715524,2765.377771708224,2530.564867206223,2615.741438880686,-0.09130910594115427,0.09228492431363133,9.90353524556957,0.016094293291932897,0.030115441501773737,0.009624036245079537
A,1548.9600884841902,2465.4164239487086,2424.22072883746,2510.8375935154586,2377.7590852448725,-0.054301284021146756,0.2766604881204425,9.842790101686024,0.01309616190540622,0.02354109286085901,0.011231357395439897
A,1383.5176667884791,2617.1644979825032,2350.966655104512,2404.254964479338,2556.5112979420724,0.13332677918696925,0.15165774879410437,9.726561779700749,0.0023407748367629197,0.014776642796881404,0.015218223763619202
A,1586.6143071961462,2543.3458046298992,2373.4251392663273,2508.4174589021254,2365.8887864058083,0.15298098821580794,0.1837743249454339,9.899978014753454,0.03227799802317024,0.01706653053969534,-0.01280893533686185
A,1403.0103397121024,2612.8604937034283,2412.911705808127,2574.176442409313,2531.990891017929,0.03918389847078072,0.114447665149984,9.729503847730973,0.009935519208787127,0.013565491709282663,0.023826654924163016
A,1537.7447918434136,2635.446728165365,2438.0868096360227,2587.632430884578,2294.656430745283,-0.089687725622806,0.10616906803441871,9.825767642057388,0.02688138483846448,0.031179423341334507,0.008409687877226716
A,1456.5468015798874,2576.519605088066,2490.8325197395366,2457.57044312634,2369.6980324001665,0.3019042551149221,0.15206981439981881,9.859763004113528,0.011008904337851268,0.0202821177325546,-0.0016397871425334505
A,1392.8486570018429,2634.5435960216023,2323.081997908051,2655.6651582033714,2525.9096185769154,0.13484387426741692,0.32641493959038115,9.733764641521995,0.002905747039234079,0.018800456498002393,0.0031540108584201185
A,1497.4052291458959,2678.07250867,2595.172583867014,2460.1985635554333,2422.8622490529838,0.2611588034816942,0.19746740119557177,9.890353620518692,0.005546277015048146,0.018109075488962043,-0.0038626469138151927
A,1542.155554038389,2721.416618279184,2515.0057380938474,2671.7815892595336,2459.5736134498406,0.02853586236145858,0.052814328313611936,9.784709886004316,0.017629110762606332,0.013884162382047005,0.03044402010478544
A,1515.367368022607,2574.2761375414707,2593.0532036583722,2416.853280531846,2372.98972314126,0.21649758184522314,0.052973367178052844,9.818835228019237,0.012158062177888682,0.037619368671806985,0.018600665090714306
A,1506.8426635504068,2446.7733645899825,2387.0599861785836,2387.0186272880105,2263.169116091101,0.18808058762883723,0.23547137089974915,9.842196343316013,0.003245835322981113,0.025636690031233707,0.01813692202017429
A,1459.3594583490305,2448.0179557538327,2531.046336304462,2514.0747604944013,2593.4181026190336,-0.014205723113088653,0.12185414183550357,9.88202714490319,0.005201800415745937,0.03006526814187609,0.01746500456854358
A,1455.360947009658,2513.2416297808572,2542.9895484958947,2632.5216030622996,2547.6453998490356,0.18994411075833528,0.3693454684850861,9.796323860151182,-0.016970941307146083,0.030600312046143816,0.004408895435610388
A,1510.699667663296,2582.4802253802836,2455.674929721565,2625.0111852797377,2471.498213002451,-0.00867947901915933,0.14768676806442116,9.854713811345533,0.0062239749706923565,0.027567780657880295,0.0026738510338164545
A,1571.3732808939349,2625.73422721494,2366.412846902523,2646.329156160689,2408.672007249349,0.20499203739869298,0.29625673077386006,9.719512416947865,0.011936182779398724,0.00952783136624463,0.00748724828094891
A,1703.9128023742298,2393.780423791429,2750.139105454915,2424.274221713878,2662.082918852681,0.10458215307661534,0.2778291020987611,9.992583521272007,0.02443355105639455,0.023139321498955576,-0.0016816352866309957
A,1496.5085591063973,2661.9624151567136,2506.433390395722,2448.2808569171393,2531.845228650832,0.05825288003288956,0.20477987532548192,9.877627580202498,-0.010772665446622321,0.011027646048248343,0.01824229354446068
A,1463.0355210851387,2627.472157330035,2464.9548691626414,2738.1698864229475,2598.1926161902275,0.13826166463624012,0.06030524056049988,9.803770082750983,-1.2070613463120022e-05,0.025734724081926032,-0.0005381195280908229
A,1531.4144850646069,2629.9338973688114,2390.245409881487,2431.323262411754,2398.1604926351392,0.09040252519728607,0.16080999487328668,9.850424443686773,-0.0039478023816633175,0.018457184051137186,0.01844992387317983
A,1437.764399452028,2577.1794873407493,2352.8005741888956,2500.1855077025216,2429.0101099905846,-0.013536817096911569,0.335865971844175,9.828815906274821,0.02393596232876285,0.03036188823263838,0.021292033524588805
A,1610.0638021838945,2426.178190486782,2492.0313442775073,2541.00781625535,2463.7256368050503,-0.029566943215321606,0.35283926471020544,9.746166402194552,-0.017350395290238574,0.029793438614537374,0.025928095480063966
A,1481.9146484418097,2429.7979076287907,2347.59689221358,2725.3120549919468,2508.579942033094,0.1900900020031942,0.10668414842970966,9.723020937128037,0.028075420319445994,0.020884716859271894,0.014592258507881959
A,1566.2180961653312,2480.9861465401605,2696.7326712690196,2560.759358719653,2410.58747846544,-0.0895198434411861,0.3178303120861128,9.827863396922039,0.015768030288635233,0.00933386933665963,0.008635885853909224
A,1466.7858997295446,2357.067307336237,2573.3061451475473,2439.541457267135,2494.1756868891407,-0.008744636353609489,0.15924576173257093,9.734461592104113,0.015350284670624983,0.02220008615266586,0.0023036069781429648
A,1546.2268838301384,2546.3501522688016,2475.0837015778993,2517.239773056743,2514.3179406274544,0.08822053428732508,0.15870654483334365,9.926970796458649,0.0030203489278007502,0.017509540876972433,0.00782500822042774
A,1681.5502770754222,2542.6566257640534,2488.595661914777,2381.46878058916,2636.5227202021815,0.016327787151038123,0.13606049997912367,9.825578758163763,0.002546197251364314,0.028584774484741258,0.006449328838239495
A,1435.3636079129722,2533.652388544154,2395.440612965401,2604.5722234827163,2361.192380616587,0.05331505573606076,0.2586903075285352,9.962121936862653,0.010116928380545545,0.017824849317903273,-0.000771025515359982
A,1344.8178834306984,2457.9100636348603,2585.3456945500193,2480.201560518787,2322.0884648899946,-0.03709686876864357,0.15481137039139617,9.698320225027272,0.013305569063399626,0.011093819638950304,0.014811125932145515
A,1588.6432958299308,2378.1490241786596,2549.838718999368,2575.528649227271,2555.887126013562,0.14452841410680933,0.14818615455258907,9.874963046527832,0.012612559221702829,0.02549875508446278,0.006898613570651975
A,1614.2299789181054,2492.007336967349,2453.601348292912,2563.191254743246,2478.834117875392,0.05907784129989718,0.18769211744060907,9.885529295056944,0.020003501556308492,0.030031567542450878,0.028536517129765925
A,1391.5079990503796,2516.70089085563,2619.0235169368902,2529.666282866571,2494.641483481751,0.20964382670370119,0.160910504412767,9.778984600193796,0.01152032511518969,0.029538616214066123,0.028791169768025558
A,1470.2292354054505,2477.1931885753543,2409.372242294314,2518.9196122485505,2473.779152167281,0.07759869444893067,0.24201989998688545,9.81503072246338,0.013846514944808394,0.010363603135781562,0.0013843613176698095
A,1563.7025480854506,2410.3804207281373,2344.141999396383,2314.4419754694773,2621.798356164104,0.07798924167621789,0.10191618697654378,9.758212450826882,0.010498078809855786,0.015903114874007942,0.004566253552709243
A,1403.58762818975,2699.924456792285,2470.9348074740888,2384.3640853289844,2321.476440636218,0.20742053622896545,0.22183565224122975,10.018964443748926,0.020791015972449204,0.009875234865644565,0.014774574964751219
A,1424.6885624387949,2583.3284394584657,2509.310897468024,2668.4734897850485,2305.3014050393754,0.0703693844786223,0.2705512841715015,9.908417606110383,0.029018349576934006,0.008404160605211942,0.014511924035816848
A,1498.1000381087729,2674.886709846305,2383.1054702790157,2312.840411877498,2375.5230620809402,-0.054627957833897955,0.12920232522662345,9.750903255630556,0.006100795099624196,0.02497443944252934,0.01458286628129337
A,1436.1318258033236,2634.258195596055,2527.2142483366756,2351.758427917805,2463.110598619484,0.11841994383759642,0.14929510244695376,9.643520183734292,-0.004087019628511639,0.00684232088771977,0.008023474329506196
A,1436.7883338372837,2458.160219392888,2284.051014286509,2462.471639315549,2275.835204626928,-0.09345518894375057,0.12372368247946741,9.784628491738282,0.004556954768016429,0.030224814387354526,0.015797192688293042
A,1308.4159640523978,2416.710705681582,2411.51371718873,2448.4840216802822,2518.8839444858286,0.25525465540821035,0.28013024168311984,9.789778252668382,0.014115889861672833,0.019510615126368744,0.024868234374692485
A,1492.4691122222564,2318.645263266871,2695.8139333999175,2592.2748529439073,2547.617510881606,0.03983069647163341,0.14105026510473598,9.863421930410935,0.012603284443265845,0.007446857327760695,0.01706776931244023
A,1503.4565334644712,2560.6306307141294,2659.0961228860415,2514.516068367251,2452.3445330988707,0.015687429675811895,0.15279851357843144,9.856462371538372,-0.0004953322434906246,0.011440378012740959,0.024645419572237322
A,1333.3480829231885,2539.750934502668,2403.188120065314,2433.1619806878225,2669.158755243635,0.0562356406159982,0.2341138324875035,9.942693821489852,0.00500600064506393,0.00373051280031687,-0.002476718889375149
A,1504.9423967911828,2530.46349413782,2508.9912965983353,2402.5338229093077,2498.469158101427,0.08264188830904,0.20392197630901318,9.744769607796568,0.01881556230770163,0.011261518254976613,0.004700410873419797
A,1408.3943900072595,2475.6083970872623,2457.854675384776,2307.4375225076274,2561.3965589401155,0.04303103699280955,0.18851729549881951,9.578208081119953,0.0033122272005943676,0.017113841504396425,0.008781363740165344
A,1530.7203755297994,2554.9892102037866,2557.1839332842533,2413.6513996662475,2472.808874652709,0.23885551025803095,0.07888327536052163,9.708271494247871,0.004677008441760285,0.013197745917007685,0.0033164338950213137
A,1571.1807770623548,2210.8234567070367,2591.5501384345084,2399.347390309773,2667.0703258358094,0.04470194301109074,0.08063807920540536,9.867027509829084,0.004705686685135481,0.050193359763361936,0.005324818987119923
A,1563.9012352706,2571.366221287142,2481.4730669057694,2541.615735546904,2619.4452833261844,0.10944733208791854,0.21643326573262558,9.764083058351307,0.008041282482227454,0.021629648226089787,0.03033479053434144
A,1214.2454599515117,2380.3027294240055,2424.940164327383,2661.998781243075,2601.353642595193,0.10798200244456047,0.10489986323584728,9.836890222532121,0.005955856981916746,0.019463309484691615,0.0007924785964936679
A,1479.1287050457888,2467.3246578586463,2569.4507477980655,2683.7290621707407,2417.424411073921,-0.022664012836332167,0.136555667886326,9.761550402898347,0.00361608482087478,0.03445491448762717,-0.009491508813142124
A,1452.1882613825671,2539.179233358371,2281.429556864602,2389.9056103301004,2585.0442099722195,0.08748975163490767,0.09947183270610832,10.00928403559384,0.004521359712426945,0.004531157325166601,0.011376217277096203
A,1476.3864039333787,2398.4838238829557,2386.81001238081,2386.7448000123195,2567.4186084134103,0.13913190758082786,0.27381321374290457,9.861699624737888,0.025063613427047642,0.027749166514889317,-0.004116446338134272
A,1364.5120897805368,2569.0072237434015,2421.4289126812923,2529.614884767675,2513.6524359245996,0.09027806278476838,0.37033887412712324,9.791013268195377,-0.0046068535378784164,0.021024092035084506,0.009434587666702061
A,1457.2248021190096,2567.6194163112864,2507.209272003111,2506.480651948551,2560.215575567025,0.009454396762021006,0.24911100392073268,9.733047615507422,0.01025296675750358,0.04057086021590576,0.005712980769049198
A,1623.369974769267,2398.5123478628766,2350.156461117827,2442.3792271314733,2385.780221674206,-0.019493481017592518,0.29469554828304784,9.851553397020414,0.01279665399183263,0.02124486002522105,0.023390213340952322
A,1630.9163025559799,2394.4559638615365,2556.3779380987066,2459.4961406523666,2488.0695360234113,0.23996949132856205,0.25150517996445393,9.684157773755484,0.009228096084108862,0.021101312150701188,0.028228392065956967
A,1571.1066195763533,2545.807853513841,2606.7072959897378,2479.9607473233405,2515.744475400886,0.15422358918716847,0.023050793310574635,9.777243908786822,0.014970286986779054,0.02242338398181601,0.004236439802393151
A,1643.2555993001188,2633.497958161894,2496.7754275104044,2486.332438632128,2498.9557236097176,0.12012870916683888,0.3520216565565513,9.75498993572895,0.01780352554309837,0.016566908466527832,0.0032248111415492213
A,1407.6871338493333,2596.911721073692,2552.518493530335,2415.4182023566236,2453.0704767481416,0.13553810942914934,0.10858075988359814,9.691950752452897,0.021221014621540517,0.01768986036241676,-0.0031077376961228236
A,1557.809788089745,2380.70387468451,2520.8507659075995,2368.6087865575782,2568.271937953805,0.036948209808057034,0.32302254420499943,9.83804790308017,0.0284193511029971,0.028876223384392385,0.004968197804252375
A,1396.4432746871948,2483.237236559577,2503.632454836735,2590.8607642555094,2667.9070048503645,0.13231998631050657,0.11570994076053569,9.773222912884835,0.015778987779141367,0.005811292008352575,0.0015816621120661005
A,1486.6927149885078,2545.711162426787,2338.586180005345,2638.236612288296,2624.244558895843,0.02348719216400387,0.10306217114752607,9.878757589204948,-0.008638421647535177,0.012886631416943574,-0.003681152881155029
B,1666.625288747522,1447.004691433269,1543.547709200699,1496.997433621971,1331.6650044496416,0.02884520666728177,0.06588650817091232,9.79126790818688,0.012929154087529607,0.018518520657831623,0.010090072059194998
B,1516.9559107807834,1612.2890351717194,1578.1482724446894,1539.6906276993425,1623.3166384582253,-0.0134531466819819,0.2100804026775187,9.641823902945426,0.020098671826596512,0.008508987800988474,-0.0022917693529083145
B,1422.0784505420215,1321.636740189071,1641.729887003161,1344.3296753236807,1454.4710670700106,0.10474303185990237,0.07566143380122402,9.861186677177237,0.01867429695138798,0.038650893871836976,0.017573543570445202
B,1412.7426301851,1460.9132226117633,1542.712628816594,1617.7549444444546,1354.5153985248824,0.07012792239590249,0.20036745931469943,9.90368987777854,0.007849461877331241,0.0025521569056246177,0.003958071779489438
B,1397.9804399488107,1593.8953965128226,1435.7950571131014,1525.0026992606906,1657.3595448153078,-0.03961221190099856,0.0873962175398617,9.784112112285305,0.02284519221376205,0.02600286558841477,0.009241112848148261
B,1629.153127374322,1400.131951556517,1571.6898702542464,1470.2204043151746,1397.2791027385845,-0.014733131305307984,0.1696641132656344,9.809435261231938,0.010751277285823566,0.008798945231579931,-0.007611126915380238
B,1463.4615155892334,1574.0579497725844,1543.2206822732637,1532.009521883829,1437.6994246154081,0.28853239864810015,-0.03020594065998844,9.700932313822785,0.01725378428449713,-0.009450814218191128,0.030584607527399617
B,1677.433062959241,1612.9411400480421,1428.8943484916422,1455.4291085594316,1375.6773241902195,0.06224916663388033,-0.018752855044588304,9.697280023799728,0.00963590179033582,0.021106610470779597,0.02334501318319246
B,1626.4437916815637,1546.0729797189472,1534.9865012496305,1484.4557455354902,1547.054094666974,0.10386850284145642,0.1654342851571994,9.71511609603,-0.009477178118623258,-0.008755905293019292,0.021913611013176938
B,1522.2186763249463,1350.2386685914084,1605.7553366284658,1366.5790517867654,1435.0410726689781,0.15661475488150825,0.08462910354138041,9.594888071891177,0.003949981531393416,0.0118203830530575,0.0031833095816926364
B,1361.960969370672,1216.3696900501038,1525.49741198266,1376.4432275697084,1454.3356697541649,0.15977027419228423,0.07409606378655624,9.732874805588304,0.006424097565963848,0.01877849294241296,0.023147287205176295
B,1632.445793007608,1674.9043653234994,1445.9478941790123,1609.0926928311974,1438.1818485063488,-0.01838340572373401,0.09843382173158755,9.781293436309246,0.026131544048144842,-0.0034439463617844668,0.005406716603990202
B,1618.4884375464064,1684.0466782284952,1235.7775809067057,1567.365569517559,1619.3181231201486,0.17958987831765605,-0.03549488873746731,9.777864461119933,0.00663407476107545,-0.0020478155185355076,0.0019305950454907538
B,1489.2210107353887,1620.3031835136344,1505.6127542490558,1452.9105840203572,1707.6106054631769,0.14469417829398484,-0.1761379634988032,9.984057071710605,-0.010166024746686689,0.008581813932151353,0.019788017315081445
B,1538.0837329719066,1544.7745144062912,1552.467866406722,1437.5332794194708,1375.4945401639177,0.01576961819308627,0.04119985267329645,9.929443274106804,0.007976023959911949,-0.006769585047690879,0.008441161591385324
B,1524.0285906389954,1406.7643687536938,1538.391630302675,1587.0159335629373,1587.0718749112716,0.0829560920279504,0.0934164063547688,9.903772291770872,0.009930502982654755,-0.013781846047677756,0.008880776182337506
B,1408.428480128494,1556.9044701108744,1301.549628582094,1555.3003163146182,1520.9113424133839,0.1248222406929808,0.073943446189161,9.788714195494714,0.0056731078900419014,0.014848002619502712,0.0243649113373274
B,1644.4605423029566,1444.3610082246673,1504.6251770173083,1549.0195769790867,1462.917799816803,0.015194693869286263,0.08339488205317494,9.806376537722752,0.006835796149869533,0.006002591780245781,0.023470296228523757
B,1466.6434489147962,1557.061882117868,1457.7814157875882,1648.9772192944722,1457.830788153967,-0.1168755674253561,0.10200665346514039,9.749988185930942,0.0016131639651163002,0.018740123331661765,0.010721715284673392
B,1477.4950425158645,1589.1331059327076,1492.275625311134,1489.8614348012734,1621.9727489941304,0.19223739549792895,0.18106599762988168,9.723480131704902,-0.010539418067016979,0.014970561791214605,0.008187006294710955
B,1558.129303671998,1522.5532499050062,1422.5106715536533,1459.0320968354213,1526.0703364885976,0.05858691129752341,0.1016897344595465,9.815329637668816,-0.0033513531212077535,0.02009579642621371,0.03832707849269693
B,1494.523499141345,1408.5200553828363,1540.8097220995155,1388.0382529370256,1514.7665879359222,0.07335267332691232,0.14826979866228707,9.856740959535161,0.011157030678294136,0.018240869751211346,0.005736654802043183
B,1537.3217329900172,1617.5349279475768,1581.4649832208904,1269.1921465661287,1612.4572498877685,-0.12884652486651757,0.12194827262649972,9.813417276665898,0.014426535255518989,0.005442640066403632,-0.009373934135687026
B,1433.793274415626,1554.7158867637054,1461.9361855439638,1493.1213165900583,1412.454305043145,0.13509107746329446,0.12799435772245113,9.83301095651247,-0.0049630894063750625,0.0021865796018139556,0.015872698542031473
B,1463.9422050413564,1311.71952740694,1288.4720006940815,1383.5908543483113,1341.4407640698719,0.28213412828059925,0.03265507794658243,9.804964382212706,-0.0055073875993396255,0.012318483109974137,0.00591375715236735
B,1501.9765153943633,1645.7121954135005,1538.0549141098707,1569.081183509941,1498.7897592042068,0.11792024613799541,0.15332992429615622,9.796321290721115,0.025268993809336653,0.004841139729227565,-0.000990081495688723
B,1589.0260447262303,1320.76586015459,1566.6204007456713,1452.8219048037065,1545.3482009046857,0.2851723880420603,0.1774566424343022,9.697855695607025,0.02043491303976715,-0.014402724316527104,0.0051053222938531664
B,1471.478318472043,1842.9047327887338,1484.2333287116153,1278.4362864622683,1401.7911371415487,0.038051920598098476,0.13286884076895816,9.75550934367368,0.002620538945457939,0.014222767112845992,0.018294186158199496
B,1505.812465856485,1537.006165088546,1438.5900397268686,1599.615017542536,1455.4056246306654,0.19944872758522594,0.11857547615343055,9.926123943834005,0.01692433088824073,0.03139647134954545,0.02124277333508165
B,1614.0108598947907,1494.8049489643206,1662.0754654445955,1555.6074882007076,1513.4513507219729,0.02504586504599035,0.158438825026274,9.770935600391587,0.00394498937826474,0.008659874448478683,0.013118949274821275
B,1623.3398480048243,1318.2123444222077,1446.083879074941,1540.9588786763404,1399.6568861152832,0.01222714190214523,0.2121354608366576,9.640930007955994,-0.005478388304524597,-0.00045654665573657653,0.02041853215194391
B,1478.5945588308034,1449.379603752356,1646.0110924740325,1520.4508698929317,1568.5665044053023,-0.006543170901925063,0.15306186753107914,9.806952034277405,0.0011730169894058045,0.002959259046880096,0.011226118955518848
B,1436.3821219974698,1357.2443268040915,1442.400602733588,1472.7930867456914,1444.294929757548,0.20602566735115457,0.09457966345571167,9.694147105538077,0.001483566933936687,-0.0037072171975404637,0.0018323359915620278
B,1567.525191144458,1441.2201753965956,1494.658661510439,1517.241375423992,1501.060132255598,-0.091751700456815,0.036352800531592844,9.811691549033755,0.0024273445783246006,-0.005822736124889831,0.009117038147550265
B,1393.0345846205003,1443.7101551591236,1263.6548047117528,1451.0065263462811,1510.8624895938417,-0.06690085484616651,0.06143224086848886,9.931190007225876,-0.020612321252661006,0.025538695832638805,0.017903626080064607
B,1434.13571065975,1577.8498128899712,1529.1354567226686,1533.346373642714,1227.7059596174856,0.0996550535084453,0.032531863689711046,9.829388608345173,0.0161408808415671,0.008203153355195641,0.013406958825187974
B,1448.6888173833427,1549.1535813572004,1586.8974193982158,1603.4396396743166,1610.2504864153575,0.03463494854392497,0.15200575952822062,9.616480013451271,0.034017071736411324,-0.004389594899397296,-0.0004342437251982148
B,1517.6885606169415,1495.684275400835,1422.506113508117,1565.1594503514564,1566.0627164561163,0.12623649761684042,0.1182419934548474,9.686006027450139,0.013416800358867676,0.014001728151183855,0.01438498524067507
B,1506.5968881862543,1392.7201426500558,1559.6351113772616,1363.65294502936,1623.5590151656036,0.28268350694856315,0.2047874571688672,9.791833888478775,0.00741934813796317,-0.01776634041683569,0.020191941016690508
B,1419.858942488529,1315.4186616161078,1420.2447632062485,1481.2845924197313,1474.169466990273,0.05138387714484649,-0.11625573242156398,9.856215134764113,0.014652268731456568,0.00044996448604250026,0.01507047360181936
B,1463.9876515807398,1355.9867954500858,1586.0417729797696,1584.5636323194833,1613.0429944532343,0.21729720279176928,0.17332067587578798,9.94005743460133,0.016462812568724797,0.004592557904900183,-0.006357054754749661
B,1680.3409769282916,1638.4441120615847,1364.9113091566687,1403.1389142826295,1461.5654614049333,0.23130971820793128,0.022048672770866876,9.792581803926307,0.019845426357422345,0.014010882674019915,0.024478424509419953
B,1516.1168299128274,1420.100512066698,1528.442598958359,1542.3015804099193,1477.946305622533,0.04109800273768697,0.18246668612071387,9.75557133663433,0.026438144838568663,0.01784397255956528,0.011592244690539218
B,1376.131320689125,1548.3721633113814,1563.17915555532,1339.4453505888546,1668.327249505254,0.0060421707297752675,0.23073292290899505,9.814388098678103,-0.005328964422070941,0.02213258054076951,0.02648382172053433
B,1450.9716764686473,1523.6571908888852,1528.122271209767,1391.152144184239,1618.7012445769808,0.1521066645500407,0.07328817645995843,9.580419181423713,0.009455016351663494,0.01664636264676372,9.39321224455638e-05
B,1336.987586288956,1596.7789058517276,1598.5644896311499,1504.7951437680613,1417.9703145222804,0.15636038034529148,0.18415582500633057,9.838114755823149,0.012897790617882824,-0.000497388644875309,-0.010640976491617314
B,1474.4148360420952,1531.2493460298294,1481.2731779598219,1535.773058964084,1377.4570472102164,-0.09644926336483958,0.1387392214546196,9.703948208800853,-0.005171531268823467,0.0004129037524696205,-0.0011003082912884876
B,1372.2364941158494,1450.4773645198359,1473.6763624678367,1550.370108808048,1664.921451220472,-0.14656861472545546,0.10804340647280783,9.763300352285784,0.008422855439097626,0.02320670858609969,-0.006983756059189531
B,1545.8928221964327,1499.0933985039426,1594.2984026564195,1436.4894391804853,1395.5499953834767,0.25038859300903066,0.2626229760280886,9.782466211936207,0.003985017857416285,0.014381603714932568,0.00021960702051694939
B,1421.6727719965875,1542.7452889285612,1464.157146938284,1509.2580343262227,1361.6918400938857,0.19944566785645507,0.2163077326837196,9.887549465486282,0.012441976378552974,0.006529322636678363,0.005769088215096872
B,1546.4396599593238,1514.2574043686768,1483.5710705329573,1510.8760127070238,1486.016934648718,0.3285306002921454,0.0666094733947295,9.660784216319104,0.005766673424932741,0.013218014588843151,0.019467709213263795
B,1611.4431074151923,1401.847118848121,1283.422606614758,1518.3833075664954,1576.666189358377,0.14013811773533918,-0.008995471211830558,9.929072466293723,0.015366947420478862,0.006647785136510056,0.013349698243579244
B,1551.7397255147966,1473.233652593746,1517.3282677814068,1607.5824362905832,1538.526953018641,0.062380090703292916,0.20106359799628387,9.762989258751835,0.0011161975421669114,0.02293425098508374,0.0060725677577893825
B,1456.8720690980006,1461.1819269421687,1476.0755580822001,1666.4417898841605,1476.4087140083766,0.2032932671516368,-0.012481094952172395,9.920869853884744,0.023439588099080977,0.015450561209039877,0.01648650193619254
B,1566.2182472099114,1395.62674861517,1540.6003256496335,1552.9244665361243,1482.1254136011373,0.12525547794118236,0.016860867616855457,9.91017307449189,0.004794436893811122,0.005877892847291937,0.008485151420197035
B,1544.143878827752,1607.7476976993908,1418.4475284912983,1490.8653316596474,1741.1523002976717,0.04554542998897008,0.17242481287895234,9.938174950496803,0.011937779429149854,0.019709474009235485,0.00370471714154057
B,1365.229140637097,1451.9009309838998,1523.268062172636,1605.094317416235,1600.1994629916346,0.12889531702686063,0.08789680693930729,9.72716064611215,0.0036570303095553244,0.007889951396630682,0.007687459552675668
B,1667.856631164354,1612.9976526422631,1563.0613073960185,1381.3237771187212,1753.2874851071522,0.16148979690198528,0.20169448281446528,9.529644681997532,0.018582706396072877,0.021381788274917664,0.012098680139628788
B,1512.3142580040544,1476.2161870732662,1413.8460496548555,1558.3672344578226,1229.9166353689118,0.06120344821569152,0.19713444616706116,9.96152357959433,0.025823768934300995,0.015577957452999846,0.006323726803509894
B,1513.8055104313983,1456.8484762524495,1462.340871587701,1438.1439977367172,1656.985916442683,-0.020243169739226158,-0.0027457384623512243,9.719114512120242,0.009833781761540386,0.007184367860106301,0.003555859173228164
B,1521.0302270860404,1475.409742775297,1576.3660927352296,1349.5159288250256,1502.6512656749076,-0.13653394239984565,-0.058546454992062874,9.757168839530525,-0.006826990304632659,0.004137402111376005,0.007603138793820829
B,1462.2614199552372,1676.1034281291836,1489.8179217862546,1531.0122658484197,1540.8560062360918,-0.08154590355899091,0.11909836021440062,9.860027152240999,0.01913678912616995,0.008990284790934035,0.01900681866298288
B,1344.2210477324872,1533.9817277829454,1649.9890048479415,1546.9467441788784,1427.0054088320182,0.1117663936481549,0.04751894070211243,9.857106319021419,0.006842784265959204,0.01687940771968314,0.014770243395560457
B,1328.6081918891161,1549.604271565503,1649.5433195618723,1392.0787928751615,1552.4358574911637,0.1926242064610224,0.106756874453344,9.714059927904488,0.008669463656152884,0.02157770917579,0.0016455808781659191
B,1339.0583371379582,1563.0604656524924,1680.8211032058966,1338.6965942182483,1574.334957187889,0.06801336780127945,-0.08005862741131212,9.900954625004077,0.015972207093714746,-0.014564815354145137,0.0073470936223241365
B,1338.7233706873687,1492.4430231302974,1596.0199882125062,1559.471341923967,1417.2422982184162,-0.0835921879543347,0.11172811055844763,9.760014006275044,0.005934228124097154,0.0034493424024037555,-0.009701345210889332
B,1488.2919666721755,1652.1761348276154,1477.622177205244,1535.124500128922,1493.400720639883,0.13229589839635525,0.1115222106220869,9.759252172106839,0.02074774652055356,0.009458768259565544,0.015452094585002437
B,1724.5201522987345,1570.3291108094572,1423.4039443029424,1477.524381583863,1475.0637069086724,0.05720062338271583,0.25293205206888947,9.877160337727819,0.003272591591919001,0.0023106648791907745,0.014007681288844647
B,1373.8162089134607,1276.5608314146873,1386.5567086171868,1641.4963629767444,1523.9849574772738,0.16020444722464017,0.2000047993372869,9.885792632032704,0.008411362274916097,0.009157266470369208,0.010692888016822185
B,1265.5630972659328,1494.0135721812264,1397.305485278625,1672.120677314447,1628.0201735213034,-0.017480254523148137,0.2401328843644146,9.616870139298527,0.0008927807446572709,-0.004326364050179013,0.007922366384961778
B,1471.9579034194903,1581.9954474766207,1466.0152865586626,1505.9718219768959,1573.7202209377426,-0.04791902756062463,0.13591348845152154,9.775265116213783,0.005109324568977218,0.011037334068834427,-0.0007731889318752187
B,1600.8569218982386,1493.6302533207872,1572.8299933539993,1496.0668138676615,1597.3161010392298,0.22546738751333956,0.20205720992107654,9.916737629154632,0.020375773486196833,0.02066720633384163,0.008849126286598353
B,1419.9446140577581,1590.7702146413767,1352.691526734715,1620.8816419963632,1491.4766476433126,-0.04791959528481132,0.2724832342070843,9.758744789346213,0.009945511930433427,0.021059331292991843,0.005744702289385101
B,1428.2599098508172,1445.493272448808,1485.7649599717595,1642.2607410003636,1521.1192786328074,0.36365756747154776,0.2280257500221396,9.710772294048752,0.003399962732005107,0.011076978289305504,0.0183661837740769
B,1529.4478391936289,1562.069198238119,1391.039399726466,1436.311277374036,1320.0194493805898,0.2638319082499401,0.03384606363844117,9.700741666894357,0.005599848681569513,-0.007255270264172846,0.000665349194889418
B,1501.7542870079296,1622.459408118724,1578.34751949112,1393.2012432923816,1386.1400656282356,0.15665354183980912,0.23518818170240313,9.78809415167465,0.01526616867429113,0.016074685193903634,0.0011813599400512104
B,1476.4582174707643,1521.1609958716554,1544.7972890847338,1572.0237668031184,1309.220520350276,0.05462250393035146,0.1598996491611412,9.920922505944782,0.009887935202492423,0.02465654921576092,0.02037818046348895
B,1393.0715769697777,1390.1580430944155,1648.8527938982545,1458.9738241670611,1320.0135558192487,-0.0063600651045706835,-0.03767891879417515,9.891739642159859,0.010817666116867545,0.025115174565854423,0.007651796679827106
B,1464.656762850358,1404.7822864440839,1539.0108378132406,1581.7357888681245,1515.2592477243893,0.10472265923226542,0.2990848080319923,9.802449495223948,-0.00498109771223299,0.020880577322125768,0.012024320509689143
B,1523.093251859673,1454.8184291770008,1650.5974551326387,1558.7438678252013,1529.6949303336228,0.15790095249523228,0.025126775127520956,9.815733527532863,0.012552966529221958,0.005370555815530577,0.01919381866687237
B,1533.1700108460225,1656.9845096647687,1596.004179562068,1586.292077000355,1283.880423882091,-0.07828810136223333,0.19406910504674954,9.843261027592565,0.017074676315230134,0.010121454227403917,0.01795845812868232
B,1463.0937416922468,1448.0999615784228,1579.7784282035536,1428.1511685412192,1589.1032097022883,0.03878447751443756,0.2718526657070275,9.77633733818302,0.017186210783422355,-0.0016288239013903232,0.025623815909133207
B,1536.296618927451,1664.3567102789125,1486.9942214373375,1534.7618060453692,1529.6721293635667,0.14923523690544666,0.0818000014818776,9.829560109544326,0.012913512907508744,-0.012495328763846786,0.020390759021560227
B,1624.495341587387,1508.748774018787,1568.1227923713725,1624.8404825276286,1544.199406179976,0.05876529343356151,-0.022551819617999902,9.713537700291326,0.023672133844155875,0.003379618400828478,0.012966273754445081
B,1649.4128108002299,1769.5635910658593,1401.1028015048937,1544.710002288282,1401.7622708329864,0.04356980972518695,0.15931327778848706,9.9338822950278,0.026432591164026603,0.013491993895497692,0.0005117174745681019
B,1464.6125181854459,1518.3852941408245,1568.2841793753744,1619.3204683966842,1580.3521086893418,0.10414082014046903,0.008029126227946326,9.631540750774416,0.025529568050274676,0.019729233086391136,-0.0029413046631630996
B,1408.1497401071565,1459.5925104180587,1668.7793269115812,1424.7004819189976,1693.2578564611263,-0.07803453577245931,0.17155999264757005,9.778075674600602,0.009635896937006509,-0.011862695952330861,0.044146368344243965
B,1710.4759328471152,1510.6012211297705,1512.1472725862222,1535.7979118143924,1527.2981003174045,0.296295709266141,0.14753708718251393,9.728982123425716,-0.006156170818956511,0.014313309969876951,0.0002506604436270446
B,1631.2854761972144,1596.2244412730697,1552.5738932725724,1456.263156705128,1456.0260956472719,-0.061463847274726285,0.25080681310846925,9.788748416757809,0.008058960659015532,0.015686986907013926,0.013986007346097468
B,1514.3665698790992,1546.7458906099398,1529.2788449913846,1631.5898797909315,1570.1503421396737,0.26800102410436244,-0.03672861823226975,9.898686325441796,0.00577451318961137,0.018977366233946046,0.0080463476668357
B,1377.74051000671,1695.7899930041906,1347.3822067871856,1586.0859717278702,1555.642291360946,0.12843743946340436,0.02915676931325041,9.920689734179875,0.008884730900597335,0.011321477595370838,0.011293797664742299
B,1449.1576554813541,1356.1082100433944,1688.3211805964286,1466.3989455191186,1538.315766246406,-0.005627592925606689,0.04996066260461727,9.68213807321255,0.01767194859362598,0.012712537440096539,0.017873854714403316
B,1467.2261826202193,1552.4788857700646,1588.470074883914,1464.0405117926214,1395.2890908838892,-0.0045654186303679956,0.17577495510600796,9.749524914871694,0.005633196297777184,0.021771798839030528,0.02087536663989771
B,1600.4094713382487,1496.1584731219125,1587.7896184721694,1535.921097779291,1454.0838785486283,-0.012426040411118569,0.2660846054293491,9.714099467349584,0.018742696334826434,0.012219536922534028,0.013614022065055268
B,1353.7204199983948,1662.02246310287,1581.8577149803514,1502.3653310045213,1642.5202737152104,0.08474917077691849,0.11015761502772661,9.931685477839208,-0.014275898757137506,-0.0021805040830593734,0.010284243508959371
B,1370.6171229148483,1546.2562214686654,1447.9907916978054,1539.1733634425052,1353.8431084235774,0.14005545139470857,0.14762691446489526,9.784191714765194,0.016218935289034037,-0.003804189566782556,0.006400120012560144
B,1624.8202078647676,1568.6220249578323,1527.950832765278,1405.1853702206233,1480.844976943192,0.2929461407870179,0.17138403110842398,9.734743678594787,0.0064020788453047,0.010977793199942455,0.0207813590740877
B,1469.7091073126676,1629.3818066862268,1440.463392825903,1634.946399105043,1359.8095337007078,0.21333807285520245,0.14318718973855998,9.823587056304627,0.0021270925904230114,0.008596972219481878,0.0021337863886493197
B,1541.1549396381781,1537.4331054423496,1547.4740153117089,1475.6614372797937,1701.5995268448844,0.062370370710851546,0.050738231358216306,9.795721920840446,0.024668255818435583,0.032386621312763854,0.010525370574715986
B,1486.3095987880174,1493.1149649286067,1452.9386748788115,1412.599404967909,1586.711047953897,0.2640177502330412,0.0444500597813334,9.840110317762822,-0.006301460898716605,-0.003305027448196862,0.02988717469155866
B,1369.3764085654473,1432.6236101021304,1530.8859028671302,1521.5704648958665,1506.4550127626942,0.23550794510160977,0.09164036188042628,9.681411528581709,0.01527749670017766,0.007564036183609333,0.021289501445446467
B,1611.262196488503,1302.5750991966192,1467.093025279457,1616.6556013207878,1564.861358981383,0.1782480380361552,-0.04446263485780777,9.793302505596484,0.004815016888673188,0.000401614561140521,0.01127689004749975
B,1622.2549561891026,1547.0769191269053,1553.61191207697,1568.4449745868333,1552.1298313766779,0.04378156887494542,0.18934866799299055,9.786707124760573,0.01960878871890534,0.01701134233679297,0.005167387518576965
B,1546.4452499379531,1660.386766165366,1430.1898946138997,1386.7821763309682,1609.7692767094911,0.010758014325525603,0.021568375436385484,9.79055294669415,0.015721668587595054,0.010185565728625558,4.843549654121211e-05
B,1477.1834025730695,1477.156653397085,1479.274752440361,1564.8074141289528,1468.3049845799853,-0.01141519760247707,0.21412016001718054,9.744038608228124,0.0024519258121040036,0.016406746674538786,0.009527927592317081
B,1654.907882400996,1447.608622825898,1552.280936864342,1556.7292486973624,1551.285899955271,0.13277368644126109,0.1739261148554902,9.83377197872938,0.015760654167132675,0.0030194102438909657,0.02454463094067673
B,1746.9861800183896,1485.138389027192,1577.109044693944,1444.3949275824473,1437.9403177869617,-0.02160044756667004,0.20383926065059077,9.874349320207784,0.0005525464636714824,0.004075042978095305,0.018280166282737917
B,1625.3468673020802,1563.4424188716353,1530.0065783275893,1382.684623235567,1558.2994581298487,0.3169444962555526,0.12882314708879958,9.880877619118657,0.010671364347408258,0.011499944912376372,0.0038224287606075727
B,1477.2430066219085,1574.8002772419197,1459.2605240132366,1498.3424327208684,1265.7868007898057,0.17424980405154314,0.20931234131600077,9.861289521927356,0.0009693957875431189,0.010133580808529625,-0.004691872220913591
B,1533.9979550669827,1670.5739396684226,1497.8528077888614,1429.9259345426055,1710.289450340254,0.28069392876497756,0.1117802441501986,9.586369769846602,0.0034354440967798204,-0.0019102761770300285,0.015635174989716984
B,1419.256120759099,1642.7849896098444,1749.121541220795,1707.6511815608224,1526.9311855457556,0.10876731388017133,0.13426163534812824,9.976049380556343,0.005713576008252346,0.009948245363456377,0.006600891841271526
B,1569.9730589297592,1522.840513542095,1620.0733566892927,1566.5019409364927,1396.4303493672087,0.15071919968126035,0.1389001310116934,9.811311198349182,-0.005804539389613906,0.025418342588300155,0.02012983419368037
B,1443.0338323982187,1513.1852069606878,1400.81225868766,1534.40055996011,1609.1965790736008,0.1230354318458578,0.09489907363632884,9.745626171644068,0.01249999624398061,0.027399128804219894,0.016154345688549183
B,1515.9008733142505,1559.7143414069421,1682.136768559805,1625.5869315857965,1339.5918862114656,-0.09008250867353437,0.2111578642886417,9.592343277252137,0.02216457793031565,-0.0007493609837514216,0.03043912263764434
B,1268.7172524504379,1490.195012386891,1505.0013788810413,1665.5444543287201,1399.201779661237,0.021724856909507095,-0.02234770484667395,9.723211290671262,-0.009499893079484326,0.01655845615781162,0.025781946617172376
B,1690.361602697302,1478.51018424932,1338.4781650025257,1585.1474229854487,1447.7992475201925,0.32016849828402744,-0.06137442562424325,9.854682266359264,0.005445707523407389,0.028038382585754584,-0.005815510406456571
B,1372.8499355546558,1462.073477915479,1518.3834581957951,1397.0529903967729,1477.87442645862,0.12231970753190184,0.27930725453491057,9.846660578228224,0.005285410473090175,0.009999110758523397,0.0035211463682014287
B,1659.5985077615396,1441.389607309709,1604.4771420449008,1462.937304260296,1417.5768021676536,0.21772919183535946,0.13364890574198676,9.810506043123972,0.003528588989238016,0.028704591057116646,0.000844924224808594
B,1579.3094297394532,1381.575814118371,1495.6871553300725,1460.5464308443572,1504.4140571600421,0.025183909535887963,0.07885694834838369,9.778513229875815,0.0010301421413807695,0.015521068045740254,0.012069317872271763
B,1377.3527890838411,1586.8011018856891,1446.1889153986897,1611.4407925822181,1590.6789477777431,0.017779257007837418,0.09211498181675987,9.891748971299222,0.00217800810295902,0.00955820261733152,-0.0016235983718862496
B,1479.4273802755442,1451.4605535317537,1510.1100113101973,1411.8047626174293,1502.9466866642817,-0.007603133734405063,0.047155466368185656,9.663202079836477,0.013329497743885779,-0.008902594173552525,-0.0014308301307250516
B,1589.1638544760585,1522.30540681181,1580.5007530767227,1412.3034538043075,1393.0633536216317,-0.01589571890193875,0.07185462701018892,9.87440454629447,-0.0010027372555956558,0.0010723517574706739,0.001255570968746787
B,1461.3496959023394,1407.5492103039085,1482.7376498799435,1483.9078275408106,1421.149542876877,0.004984833736754027,0.2870667155630604,9.545491087503523,-0.005157475631839832,0.003256798602250142,0.010831795700333135
B,1504.5745418525166,1688.5676733181472,1583.868513916328,1656.9337789953013,1642.2798072884334,0.13751967921888233,0.02033370142882389,9.772062237946752,0.028733836666993744,0.022288039896479116,0.016283566197159607
B,1689.4138647072712,1395.833573876767,1482.0894920052347,1533.553804424416,1463.4511733092174,-0.08182922340667709,0.09912248432422377,10.034852760035623,0.0098057939334315,0.024794943080283717,0.01614458724723749
B,1353.2342554725574,1599.700266114311,1528.7245670388002,1442.7578041517252,1469.719446990712,0.12845599199118005,0.07855241681746583,9.722939220903095,0.008004865959544376,0.0066085775889297305,0.014489853675024904
B,1670.4625501029354,1544.7053659001117,1510.9398597638312,1354.440417565615,1517.3965419336243,0.16834487531494852,0.05571136104047157,9.833461939138607,0.0045402399525838145,0.000600376055070349,0.00522146037268412
B,1412.6272500581715,1513.066543899701,1516.578232993352,1629.8723682114264,1678.8887457784238,0.04365378583316823,0.03604777075495405,9.724543494870026,0.0003755646564811508,-0.004511920387916571,0.005636365172225471
B,1660.814770777233,1686.4279211978373,1473.9270085329579,1414.3485370849805,1589.0190756237268,0.01021940839719171,0.12453166575512602,9.918184412929131,0.0093014568691304,0.024282381963725033,0.00040568977036733317
B,1479.5364835566975,1633.1961069783279,1432.5103946292145,1582.333690822845,1563.3339893402451,0.04799606938576474,0.13975977067312595,9.547793349117658,0.00021541582635599063,0.01415383949164366,-0.011960853141926195
B,1451.173220963053,1458.109565861433,1625.0998910298815,1552.716230110093,1572.7000400448346,0.22156868232737745,0.26705948308094696,9.803521065428065,0.022431249071876963,0.0005532565795541896,0.010271003106043272
B,1521.5424231601414,1455.1434984938526,1556.5668426857633,1446.8992552183397,1425.5349978514887,0.08290272828091502,0.1404619058565258,9.796182894105554,0.012284013715859852,0.008755865581049864,0.02213752171472226
B,1861.1108146291429,1732.6120657762433,1506.5343784704955,1438.3255758059329,1473.5751617627477,0.15848485915992805,0.1167017272787143,9.817075233503093,0.006933938113481187,0.009636361479751812,0.025556759492757482
B,1480.0527709828475,1624.16358118389,1482.4320729529516,1307.1864252126213,1574.8892402626836,0.13265223819962413,0.37498008986220543,9.750920633043258,0.021227439347319355,0.005859773244673593,0.004905537336396421
B,1571.975826980398,1470.4467476284308,1458.8737028723128,1429.4607289116634,1678.2284072249674,-0.002320533131335581,0.05652591577058603,9.862957197417337,0.01753790535337477,-0.009201621258204623,0.021903341124416158
B,1440.8535037469467,1395.304466132563,1755.7038327609932,1397.6479837848556,1567.9709585084017,0.2391150788738161,0.18846506978831415,9.776357580925334,-0.00016576078038413843,0.003954925243034538,0.010420213098185565
B,1510.4034801568616,1466.7794201414322,1663.4315540435175,1390.9441713953554,1634.685750182859,0.12816097867289594,0.11921814816102755,9.670857699371645,0.016278468796273204,0.0016177870210602047,0.021944891164460717
B,1340.1910620898086,1491.52441003064,1612.9782079947781,1639.4327150727897,1488.96196252287,0.16711777185509064,0.15203914366400043,9.741813846009606,0.00042560969134261377,-0.002723908097535985,0.008057382349223204
B,1640.8119572562416,1550.846139827498,1552.4697666487273,1609.1458062453373,1736.5198100875932,-0.019585194397697125,-0.08282771018304244,9.941061852644767,0.0063835116757390755,0.00275467336184253,0.012579348111910638
B,1292.5830201864658,1591.5489814498208,1506.176857672272,1369.1301164508702,1466.5506421404646,0.16643935282165698,-0.09586632761010258,9.934300732027271,0.0276933634047372,0.01854783899029096,0.010754858666936835
B,1557.1665518243449,1558.6834014095998,1645.9374940933046,1420.8061876495165,1564.7562016431498,0.23282305219336008,-0.021089795039939824,9.851797495902124,0.012044415485310666,-0.009380900988651174,0.018583718430859698
B,1564.8847887847787,1716.5859589934848,1468.018998897624,1465.1506229589895,1521.8197638604383,0.05863241813306964,-0.030463735108002904,9.698323181416496,0.014348826801338494,0.028719503174913334,0.009408839651148004
B,1467.2191337113427,1465.7055391861218,1433.6126959200947,1307.2525103464793,1469.769050290136,-0.03740795706951408,0.010536198121895435,9.862823855084772,0.016037010051661815,0.014219732847758931,0.024729976113580417
B,1274.2397512779166,1603.2974840681277,1515.8899307143906,1545.0496874453997,1398.9876385604862,0.08714496568746248,0.2300024319509295,9.754065233082136,0.019388075313243137,0.021534201566790034,0.006995232711285033
B,1520.546396076751,1630.631400300385,1675.2655218488828,1378.3767889085607,1481.8180605285331,0.15229156225642157,0.03433574613211886,9.664823292525156,0.012169214448652283,0.017298453370812282,0.013700896820852008
B,1476.1287829284472,1439.7597381829269,1547.3734359343796,1425.5401670900596,1569.8930273272815,0.17139883195873246,-0.0163929529092762,9.78810967615821,0.0037616773173091657,-0.008274011038283907,-0.00045690436265465387
B,1368.768141007493,1625.3132594365532,1479.074132242309,1660.4931470719303,1422.209856720974,0.09165180985486594,0.12488324075215729,9.99450203568441,-5.89052382434091e-05,0.022347056344589115,-0.0018831421001480192
B,1423.4690356996136,1505.0003604691062,1411.2443852232363,1571.0325671573999,1495.4157756613195,-0.17736752942390996,0.1858900076297513,10.006524630963966,0.0010652158134172827,0.01393652454392366,0.006643782072587258
B,1514.7568269336641,1580.8801492331797,1336.1900006075048,1303.237773051965,1436.5779375256475,0.16291801241922826,-0.008961243101928432,9.830981785495347,0.024777679395787795,0.004945501103781691,0.023600785596527465
B,1294.4103787641168,1508.0916296699997,1495.3051154863845,1396.1123522751661,1548.5212946945544,0.07177404886538634,0.009360338432201618,9.717561329341969,0.02257308530036036,0.013476240825758405,0.012460802807758508
B,1404.8046494186067,1339.1255530428207,1660.3622413896326,1589.5484725835677,1345.90850853047,0.11895315243872161,0.009572233691598195,9.979589638892232,-0.005690276090118443,0.008211502913479041,0.0068105480840832035
B,1305.7236788413495,1537.6686498786773,1449.7885640284665,1464.3381929756022,1545.997332301069,0.15224721465899557,0.10708830514510455,9.597777347042951,0.023510182179655836,0.009564596783395917,0.02890338571905965
B,1400.2528499674982,1413.592347809319,1720.9995897799508,1333.0743147526823,1492.887185819255,0.19144560474221892,0.10013022210346918,9.829292848994758,0.033888731416223214,0.020270921473595934,0.0024276284465646588
B,1611.8059608039541,1537.5212411776163,1521.628798311008,1676.7498168383588,1490.9703666752303,-0.052036732726768925,0.19479810710652634,9.721294431951367,-0.00424978916704421,-0.005058309955709404,0.013456243168887895
B,1485.8839876630102,1515.1546480436216,1576.156940039733,1708.898649512968,1487.1024631025198,0.11903116325493293,0.07894227746454602,9.840722315639011,0.0034489183921034786,0.011033925194739733,0.005147044515365337
B,1418.7791257916515,1429.5238600961638,1338.152806146576,1586.453918538312,1260.6135439582847,0.047881771363178,0.06660144461962232,9.775730805866742,0.01337530642480075,-0.0053945514899304235,-0.006526617201950328
B,1340.1406597966318,1599.606181086025,1684.148402917744,1471.9237245134566,1413.563325914082,0.15402278711266718,0.35020804397480076,9.787917674760813,0.007859095640189412,0.002978305628871766,0.018892980338134434
B,1658.1732128772078,1558.670783263091,1300.9502804917204,1487.0463881400553,1827.8579679942102,0.22980708438822733,0.05524908330068583,9.600436257183864,0.01892351939595111,0.006135856364205635,0.009216785938340306
B,1462.4911079026563,1595.455141107641,1486.2420852110083,1461.0769637538876,1370.1516565728455,0.17764336697201538,0.08148418498762054,9.738186430814183,0.005267156274787767,0.01787571780536904,0.03215654468268236
B,1482.7249401968281,1754.401235388362,1416.496428294924,1482.4520974126676,1448.18548523685,0.13565918451473985,0.09994797838676481,9.778420093023703,0.025952908338566255,-0.001567619791216968,0.015408406977701902
B,1418.7071878683337,1628.2158731392137,1392.245668809131,1486.5078372702542,1595.8101614913026,0.1837905867467476,0.048999958471071706,9.659845555436613,0.017517800988536038,0.007116460166065399,0.014239518371421827
B,1654.5841811281034,1589.5990763194902,1556.7558520561674,1446.633184367769,1555.4478464791948,0.03103671729808266,0.1580927633640532,9.94412460753258,0.020330851324506023,0.022485879552794224,0.027753478929073323
B,1606.6010554812767,1371.4478931052897,1426.104418532722,1620.9429655911922,1506.888873935441,0.15027867330596087,0.06096426927103196,9.775820858428489,-0.00032277269007867024,-0.0002467932459443104,-0.0026587708414852144
B,1340.7204997965248,1502.4175665558575,1456.7962849943544,1524.1057749275817,1407.7394335259128,0.26477081065258545,0.07049168483646663,9.824947312379674,0.008480148250288732,-0.010884537153999339,0.01584452553417498
B,1420.4411893718604,1485.2382656343718,1483.8685691255675,1519.9756211799568,1578.3513698559827,0.12092171595565447,0.15156817225655742,9.832227844454303,0.0025489098846608483,0.03127843304671329,0.014532344363719023
B,1439.5342379149517,1510.0267718827529,1487.6607001070024,1477.2069410821114,1606.248224575308,0.1786539570462973,0.14866918818064706,9.592095157171793,0.023210226100346704,-0.005383155087963774,0.019135888890111863
B,1544.0124167078739,1566.4766589686828,1433.712838888383,1807.9081772427837,1604.0583114346477,-0.008358228980190563,0.30165939315023493,9.858922310634588,0.010896894455853956,0.010061941279487419,0.013481482326964297
B,1401.776532519458,1525.420373835554,1542.788249858557,1562.800369350605,1573.6196730280667,0.11607508631139148,0.08550012248049785,9.680041317100876,-0.0009344698403575945,0.0001777358806201012,0.028860481858486227
B,1606.4822155124095,1586.4848559261484,1422.3189517085814,1508.8654729712216,1344.930446160064,-0.02445166525799128,0.1016255704207254,9.943532703995338,-0.02220262003650105,0.014838829417124916,0.0023021726132697803
B,1359.1206398736442,1426.7211803459143,1477.286025084588,1424.6417754176623,1493.2421355244007,0.0976234223204771,0.13020547364109136,9.840827509195103,0.018945663827718624,0.00549828684403339,0.026546202961307996
B,1520.7200183880768,1387.8929719574426,1465.8767806725812,1251.0382454472986,1455.93987942325,0.04458407749238039,0.33887854135076545,9.836855780876572,0.003267437572851508,0.004028714676326213,-0.00018266158319643969
B,1684.3391530881613,1519.0548616934211,1657.7041267894742,1696.7786644755713,1543.746556703049,0.019903443975676144,0.07258188788188345,9.848465900729746,0.017558463594252442,-0.0015612991743261268,0.0025800230231761293
B,1535.6453974828623,1503.7482735105277,1369.5178254684615,1669.0786575162724,1463.2513937031147,0.025011484115963017,0.13787280130222962,9.653007627015732,-0.002947157198884989,0.02828492563934685,0.011171092346880811
B,1466.393796195576,1408.6860085807787,1573.8039358847595,1440.3912010445997,1452.9388714110478,0.1603341384179668,0.16111674105165733,9.781173225257978,0.0013430861136966687,0.005371522095290971,0.024710157160868967
B,1609.1596984144978,1301.129900949007,1632.1796663761813,1470.675785839984,1564.3771951190993,-0.0517660276560743,0.12736656794859275,9.784543827029312,0.023389886819537117,0.01717617743801752,-0.00644905298929487
B,1557.8920910273102,1503.7717327787586,1509.9661496102624,1406.1170597373216,1437.1484605454157,0.15249175633656506,0.032545714397989256,9.667047911264913,-0.015839421330941995,0.018725351784355714,0.005863137363542862
B,1470.8738925234811,1353.5736730688393,1528.053846533571,1555.052144674685,1442.428860622852,0.1791086382218699,-0.03754588029818595,9.735313370530864,-0.00022909521617486307,0.009440304230833883,-0.002163336648172604
B,1493.7657968003198,1628.0769511972162,1417.6038416373492,1559.4193426895665,1501.7182950263107,0.22814429125628755,0.05652286408963448,9.767358717738468,0.01178353456945743,-0.00466901286932879,0.018302754670904225
B,1390.397298388336,1533.9877745998742,1880.1115924003798,1586.1040878878723,1579.4523359190111,0.12081167837273028,0.1393962226496258,9.826621190759393,0.00276283840630143,0.0038342010350012855,0.022271387443392132
B,1551.776446133976,1346.2116274693474,1538.6967125482684,1441.1958828318268,1384.4608682726994,0.155548988284256,0.31448778209123096,9.783338850579595,0.015421468064916177,-0.005485401534765741,0.005842320063564959
B,1507.0737673761007,1574.6574381710504,1525.749982436038,1510.6200860194137,1509.115552198603,0.10496740115298775,-0.004407263416693036,9.801473173996719,0.017603887941178106,-0.0004590780510447829,0.016395505429157804
B,1528.8531293041003,1616.2199596495348,1470.268719342381,1410.4688565486006,1607.0550665150354,-0.009554732786772949,0.1318789078961504,9.702767256597696,0.024577528702097826,0.009218219247091194,0.006542438638233639
B,1646.248070639719,1364.5000593463503,1306.6879677289135,1250.0694910457903,1592.3181735658331,-0.051603836420397176,0.18793609142160586,9.7227856318577,0.01248504244688468,0.00567026489603108,0.0030056894132189484
B,1501.774113997714,1463.2866998721277,1609.7178918529376,1708.5013192578615,1532.2473197893873,0.2695892574650465,0.06610218366553444,9.850708904939939,0.02394437066571663,0.01356796587904455,0.03981201569046805
B,1562.5632138301185,1569.1585695176464,1543.8617389469314,1282.6185017306525,1430.743278219344,0.35201833692123097,0.14359235954787058,9.916285076055098,0.025243209690916684,0.004529041694959736,0.026748600307703915
B,1478.1581553277547,1743.3228421104973,1430.5078536832407,1509.4923117214971,1617.8879084023179,-0.03601550962596403,-0.06426501430222059,9.803350495967868,0.005217689494530352,0.01442670246843911,0.0039253735931622435
B,1639.3498690939578,1556.636550527672,1591.4910686318467,1563.3281652451667,1584.553113534797,0.13341368089710398,0.19393094976698655,9.870543436562414,0.01825831286437663,0.01512818498887341,0.012935287163796145
B,1431.2344540525678,1510.0311659673562,1435.2522148799728,1509.1946561215461,1497.6069881030724,0.1374824906386169,-0.011999669161047583,9.966689837170208,0.017830481595715857,0.008628559991012185,0.017018214684463157
B,1403.5813183322675,1356.4285562063524,1566.988958830178,1588.5829731855606,1651.2486145124199,-0.04675509352075069,0.20840087025299436,9.812326603106186,0.02018667867259651,0.013874336893819039,0.007359350189830978
B,1342.6040041169776,1519.5766998119125,1576.1776655549654,1415.0190776890563,1673.1834268317223,0.24452660069591448,0.05913419721923436,9.988733936083827,0.008033912497836027,0.007712834389861258,0.017865541420638738
B,1555.2818271348985,1695.7701177759382,1407.572871167158,1442.1854203286055,1581.8616606357937,0.0369454400270814,0.26594099022175355,9.732849235669432,0.0046215452212411065,-0.0037783434668254533,0.0030411455262356482
B,1505.519618382515,1470.2665974453098,1585.4810923574928,1381.7778514128709,1448.116138527787,0.11284607036414306,-0.05357290593416403,9.813894463576197,0.016248276176293083,0.014575835302730216,0.017043778351009946
B,1483.4339485028895,1597.5265168720332,1468.9533380257706,1535.273770385884,1580.1371765966148,0.1128081436396147,0.10410290440575892,9.74321224478696,0.017098627501816645,0.002749124912532574,0.0119366562047311
B,1601.3092222699706,1485.9246826269436,1515.0017086054872,1341.150407963131,1463.5404027547734,0.026241931869540394,-0.050425791276270976,9.854283596890198,0.022994742095297845,0.003689455247157313,0.0009795506945315408
B,1388.700073989615,1361.8050938171705,1548.5001317838846,1509.9312864044832,1460.6640587802794,0.1732495911118267,0.057730941863021835,9.865462728560527,0.0029261069000704647,0.007875490013928375,0.004239064247465649
B,1583.2540276403067,1465.690665127821,1408.1912991406941,1526.6664552432053,1464.0528297837293,0.1215510904787441,0.20355588199602878,9.808726777483075,0.0030250668613780772,0.023926021762907132,-0.011406399916644895
B,1675.9787204511028,1603.5684575238367,1660.2966802385672,1429.7155525535522,1361.9581933264603,0.09798106045016174,0.2385580459611074,9.643860710931994,0.009635276337755953,0.012343074231974664,0.007158559468934843
B,1326.3679989747272,1589.7142814267922,1493.2366578705326,1443.4043898283937,1372.634715690955,0.09381073788277448,-0.02160674208005195,9.610874007482142,0.008621284278522377,0.006788705458981654,0.01459029478846936
B,1441.8684346129944,1402.1119208613347,1365.3871416578666,1578.8636533615254,1420.5900405699203,0.03283916707478084,0.0799967899846345,10.005529814947701,0.017512943787470793,0.03275200507613822,-0.003079069855156647
B,1398.0392825436913,1443.7367825395943,1303.2682049539455,1352.4665250484927,1467.0588488143135,0.0605086741064596,-0.0042470224716868454,9.878192542039617,0.0046848308973379904,0.0007069200577650408,0.01682970696036734
C,1414.1213105673078,1400.422961101564,2224.125245064337,2513.0823421735645,2481.9120326333405,0.25418796650651077,0.15731033586843707,9.699386519342484,0.030124949411865568,0.0021797787247318737,0.012030639598268077
C,1382.4839129130605,1587.0234365219392,2735.677457127619,2520.007289944275,2548.502976086779,0.28889571221385096,0.07582814971722994,9.849299246755121,0.030205167988774283,0.030802388782956096,-0.009403316042582181
C,1287.8851087836822,1646.232326090017,2508.063193415538,2470.765307456973,2615.4663535155196,0.21054497288949126,0.1978303488161482,9.755440884986996,0.03481073410555715,0.021019237452726564,0.01758081242577857
C,1664.1681611166684,1548.7015714627246,2391.2579011556013,2560.9293222683846,2413.554637796622,0.20073058135292304,0.14172372334732428,9.586752764970583,0.021759625554921502,0.009108625422496686,7.511619299561956e-05
C,1448.486187485944,1502.1653596182705,2516.0733469998777,2473.086685022778,2453.334323430696,0.2705611904308489,0.0023701139297495483,9.568247457885029,0.026464856314460907,0.022602368312223904,-0.008179113743141958
C,1445.8537500446746,1603.408774995297,2537.793049469592,2607.9052349394797,2458.9669495224125,0.23517530608478682,-0.023359026673494182,9.655864007755271,0.027045511904170882,-0.003931505051788209,0.021720405106059215
C,1488.1829538683664,1500.893899069718,2535.7773913619535,2416.184210830237,2588.1336344401057,0.15675793940020333,0.01863775173228613,9.521305237394154,0.01181687796141285,-0.0009957549107552296,0.010661529131094014
C,1622.9542186370277,1568.792186290292,2475.044523969202,2556.822138279008,2610.156425121865,0.33103523924269374,0.3685482151694781,9.58737601192245,0.02485390862666854,0.025177092848249226,0.000902968503891953
C,1602.447530897655,1394.5318952581165,2333.4192141076824,2539.295739803985,2550.727456439248,0.1911387570058584,0.21314982185591033,9.79673261810492,0.018706419751878537,-0.0007350843417743072,0.011491861832158452
C,1553.0754503889505,1561.7894801128405,2598.7933232464243,2748.7081305312863,2577.7540111136905,0.2664619779585745,0.14196993984138148,9.809221825080195,0.009894929478796633,0.0029089409772141096,0.01054496836268843
C,1427.999567875163,1494.972418142563,2657.164680136451,2459.619871597629,2551.8121867775267,0.07320209823931836,0.14367959135696484,9.492996031639438,0.007505157616372153,0.0066469681083962465,0.00470030608896617
C,1488.4444781400362,1388.6080219704597,2478.590182563271,2391.092955827068,2499.985257616114,0.19763274296138095,-0.06940628485002126,9.689120741733493,0.01308259130857067,0.023012583041773598,0.03132210419334956
C,1441.4434782108228,1460.1312115854234,2323.6062170548475,2424.5454996268336,2489.1356331743323,0.24697472809014753,0.2615921989668617,9.80480427438402,0.008089948406028877,0.009174931489442553,0.021939091025121468
C,1651.2871290236042,1430.1143255311815,2854.1782107521526,2504.204595089996,2577.1270599278437,0.1898068002812862,0.015886852712384464,9.778029156623841,0.02408058952291358,0.012723992552860735,0.011900591424425445
C,1399.1313909743326,1574.5510391947118,2375.5816420454944,2451.8260186944353,2285.5703019886478,0.2745775391502101,0.02992997611020741,9.67794418885496,0.017593115777557043,0.0031175747483903875,0.01970850894357708
C,1583.1142702370412,1569.199259557233,2479.1146118618276,2501.771183895465,2481.3480114579797,0.2625170393686354,0.13211283166042434,9.739884130620757,0.013967678815838621,0.015735936834464857,0.0075472690366077105
C,1490.0148326156168,1468.3196066957291,2492.124266557354,2279.488871778824,2593.194309860579,0.45187470756386866,0.01604758567662183,9.822055903997336,0.032358868255901015,0.018957044731754812,0.019194134163238383
C,1306.6203931847654,1521.4122876412225,2358.875644286382,2381.7573787507426,2504.6612040142118,0.026649902501544892,0.11440703302586516,9.730475674334055,0.00842803479542648,0.01259097420880967,0.023297274237018387
C,1518.8054492123656,1690.308307325584,2418.298400445402,2597.3917958234842,2372.6585245334095,0.29912592963944995,0.1410231187772066,9.655962398630887,0.026857553856284157,0.00826066730605243,0.0031771876815853044
C,1673.6064767906516,1469.4187127940013,2635.2781602731066,2607.621122886154,2527.5147483635196,0.16625535662510055,0.02813529756358303,9.518478226148023,0.022618312567440284,0.02086715044852169,0.0069815409720366435
C,1439.7973539167995,1550.3978844979215,2580.7780915345693,2494.4330795415713,2441.410506129502,0.10211006271266458,0.10585754974394777,9.520745886395858,0.019808261444688252,0.0065890544179478365,0.023398138723434242
C,1410.2146469157174,1579.5614882180557,2313.4280841811765,2651.176793823168,2686.204396334414,0.20138510171510496,-0.06174371148967012,9.71227192102292,0.008145840493936145,0.019740225498624447,0.009548963852256467
C,1535.3507499066868,1516.397880576872,2492.3870227884636,2727.5822889836686,2588.844849444334,0.2656504360329434,0.2201831191409792,9.678484807006939,0.029510039242610787,0.013890281133551041,0.015947816077418287
C,1305.8309302478124,1405.6239261653998,2360.4362196364336,2518.3149282611735,2464.997485808338,0.1433247926122446,0.15597160712642621,9.65547395896858,0.01857926504293423,0.02108252059735078,-0.002353782163604044
C,1526.200476743401,1537.4185947297062,2718.0983384204496,2524.4605326283017,2378.602030608283,0.1868446560211892,0.06125998982479197,9.667712874515386,0.02763807731767634,-0.0002566980059728035,0.016279350023238902
C,1328.098349402891,1509.6882688590752,2434.391724489937,2596.2595831798735,2656.05156011322,0.22002693933905682,-0.05837993426887042,9.775551339499984,0.03252794683177107,0.010208089808097062,0.031569772562800226
C,1419.4977662470487,1463.5616862265517,2392.4209541428336,2407.819734655434,2392.0549432265216,0.24774776081911953,0.07254653118512103,9.900204386058096,0.02569307355895968,-0.009160406870497064,0.003523979412773293
C,1614.729956092377,1451.866939332617,2440.1573760314886,2474.742614337871,2723.7493006465224,0.07797103597429532,0.1349922793484164,9.602323557597767,0.03420279313859172,0.008719743909502649,0.0023329032596528477
C,1599.8489974312051,1512.8692564021712,2637.7849815803656,2437.5047791239167,2501.2897490102987,0.18038818653950447,0.07143457228487668,9.741160389119646,0.052234800145269406,0.03946984443865728,0.018563201443651534
C,1322.9339379628257,1523.2050504207427,2599.6460000701163,2511.986821085918,2449.9198740098213,0.31581832389137005,0.23156001541114912,9.602084589814705,-0.0036067454982095584,0.014357539942083799,0.008866788498075614
C,1588.7831214930554,1353.8523192979665,2525.7953538634915,2420.036321197036,2543.54334308216,0.2921391234108258,-0.007612624892823036,9.792505962271484,0.019881868982978963,0.02007546364299208,0.009603746828325167
C,1453.691569776511,1521.2716333787375,2468.822861710262,2469.094100223961,2400.916542451096,0.24342131855699833,0.16270784518284137,9.750591956288154,0.03118730055937064,0.015281255350358368,0.03593649075150645
C,1327.3920801708962,1500.2832149693734,2445.846923481775,2442.567856158726,2429.503643863339,0.18532161160010205,0.06661874551211833,9.670197870313206,0.020298295553374916,0.014575535387485232,0.018838245921797957
C,1300.3690614570723,1588.6961125830992,2382.9850796319743,2565.697180313101,2502.003546783068,0.10474607894475141,-0.0042787608847439235,9.679177043290371,0.0203535372533588,0.00526231409728108,0.019887768604563018
C,1478.495299188418,1465.637944641855,2422.2811934689603,2511.4282533074565,2647.9087211249634,0.15155563548398995,-0.034663769637893915,9.759104947679154,0.02996681652476109,-0.003460033459827039,0.015528691701467631
C,1382.4543706793113,1371.791966757126,2447.6451691752363,2402.364251691969,2378.1182221798126,0.33339597161194323,0.1774763562450773,9.637464207723221,0.0059403889559530194,0.015646631386245682,0.008862520797284636
C,1607.2196783618676,1604.8753600449531,2491.029736425276,2582.2332907403306,2594.356516818075,0.2774593864920157,0.07185279870040698,9.782956304854466,0.03161821207914832,0.006495155894673952,0.00855570674282013
C,1500.3320138271858,1425.8791461655362,2276.770222657974,2565.117959684977,2633.573391059681,0.21886561597711388,0.19174215916349255,9.669335504696472,0.03661110466441489,0.013102529319724155,0.006125874065288877
C,1384.4156168282325,1506.4442718239952,2549.5468732235263,2505.6926137617083,2490.8272257002955,0.16136092297721077,0.09975009957206189,9.7490682569434,0.014162082490792254,-0.008975277334756096,0.02878992209731574
C,1362.7665939413976,1447.4321304129362,2490.5483146829924,2573.9192923882547,2443.3364755675566,0.24834738630046665,0.16255956058872328,9.50387208551628,0.019081081549835198,0.0026629351283900364,-0.01609596393402083
C,1429.1644949607362,1432.2376242401924,2416.421276861089,2507.212790529854,2352.5714165110903,0.01984398315620231,0.027163018867637098,9.71554476617073,0.009094606660878175,0.0033586726813420583,0.0024074305107260417
C,1404.8195809253928,1569.3014111845548,2464.529137684111,2507.9351450929576,2627.558183773916,0.1990912435287192,0.08523869685596054,9.765645635512172,0.014955546800895073,0.016917429948020285,-0.000762586045741493
C,1303.918959597952,1433.7325963720323,2609.716548214575,2471.0479893500565,2526.749425498101,0.055027637750802494,0.041869394130582965,9.606602819505797,0.011297713519538169,0.022926889934488354,0.017795328892531912
C,1559.7529926712464,1447.3260901568342,2565.1526383216574,2506.851241681622,2385.00058961166,0.3777996743837719,-0.014908473461799687,9.65704535494603,0.030640200767261726,0.00834788281683736,0.006253156099959461
C,1570.353669472161,1404.527954100429,2575.243049755722,2484.6722304985997,2641.4798861568784,0.2770661454751854,0.18045620999596093,9.800173385022063,0.02058666807731524,0.014535671421289791,0.015471335471364603
C,1486.1722901325734,1606.2805228649408,2434.3521858409085,2451.3636657325724,2361.0334300859467,0.10675726768475265,-0.11424034465599098,9.77821809324314,0.028797089621563934,0.0011807408345192415,0.019752053684907407
C,1668.8351714023688,1527.1943182518949,2692.1220751816213,2480.954084299284,2452.221688746335,0.24659647955183356,0.23705158864410097,9.744578671984732,0.008602656464831574,-8.62231363032203e-05,0.003560271408373847
C,1411.870003776659,1622.664421142494,2439.786656524682,2554.981443056996,2428.1663855681604,0.274222352941025,0.21866100881503456,9.74825032886508,0.01730351514572394,0.013411515251386914,0.025816413271574176
C,1687.772193978067,1471.6600557922025,2398.6366320531843,2570.0620340835317,2475.8816552540416,0.1831701777828333,0.11597487910667845,9.871527721542178,0.023815395029334385,0.02936226966274584,0.017027838790817405
C,1502.602144798893,1575.7616361934274,2684.9363271378097,2471.6075282248075,2554.408344585018,0.2588910109248229,-0.05574210418337164,9.821017096635266,0.01080659614399505,0.025105969600777978,0.015129129814209087
C,1373.3047755656448,1430.0383842054582,2680.159965940334,2549.437989286894,2393.0244584631027,0.034621094202109653,0.20259354308184552,9.497727325974136,0.008403164858810654,-0.003614418592619911,0.013362275582999735
C,1458.5643767114743,1353.8531953366164,2468.185928019171,2497.9172114563157,2534.4101360868412,0.11772107682154462,-0.018216104638693498,9.63786332995157,0.027125617874122886,-0.008086876211164171,0.01113306582545558
C,1468.5949168370562,1532.4793979516414,2556.5073312562963,2585.4881625112243,2477.39451788311,0.21554726315780948,0.26057910577478127,9.696818660998465,0.025849153676428697,0.011354957090626451,-0.009641257005330523
C,1678.786355560397,1462.2757142028274,2424.6505390443713,2475.3728516679694,2572.953047709634,0.25353120321616873,0.11719990665572681,9.664023460418733,0.012854334049404819,0.013918068993946904,0.00599240100600566
C,1376.9141758493324,1530.5817459834625,2577.167428283355,2399.4925479061085,2544.7969235632586,0.20188263170409845,-0.02663382458054611,9.747495712889908,0.0506672373987871,0.013384522479859048,-0.006351540398947099
C,1485.6213400795946,1584.3802485084823,2470.9152708600213,2564.725370213023,2626.491733142626,0.23610190945422307,-0.08501149102693054,9.607377274503198,0.024874819213704068,0.02138845686092542,0.02284220377722152
C,1513.062836480282,1569.7079578926805,2473.0328952052964,2420.836940351576,2579.9074255150203,0.141223989460311,0.04950825577058015,9.690095880136061,0.036076382826801215,0.017668854464276112,-0.0004962669174221387
C,1461.445127610546,1507.8199452219073,2409.427225217098,2508.842521911712,2421.8238011396825,0.3129605533604376,0.1857334430684239,9.68131134482694,0.02289548764810283,0.003971665770692122,0.015151632787311587
C,1492.648516688023,1700.7901222633807,2544.0581577007156,2444.9057651633098,2525.2393815401206,0.333649739167337,0.2520454170175672,9.720492726804194,0.023687742145853154,0.022452719207432234,0.014041374647143785
C,1579.0527658511096,1683.0535699748052,2487.3690394018317,2363.0152480098,2383.0094982229393,0.19729587722835473,0.06920268322542344,9.706704074244024,0.035798059505810824,0.018128351080076488,0.007542159937873933
C,1669.7685816352873,1472.0677047678125,2371.743279410436,2398.770861991767,2438.856390897861,0.1520505210096439,-0.04150641547459627,9.648423313305646,0.02729785482921039,0.017048239977110677,0.025061156550190256
C,1541.3090101072899,1614.5703268213904,2288.9818564874727,2431.2391647981653,2588.4246314638267,0.10775990655507325,0.06478746844556636,9.73842624454706,0.004121280731606402,0.019976886730998684,0.0083201979543945
C,1573.573734192959,1521.1871024210786,2675.7433214926477,2767.7768790298464,2447.637191810161,0.2832339798583324,0.11234461051749739,9.74679809877347,0.02072899311530706,0.0057594518407898185,0.011622891910837365
C,1603.2399625213498,1386.317920762654,2620.7748826667766,2554.82676330073,2564.673780621943,0.4225026159854541,-0.009884403079783666,9.66155521243632,0.035379336125776664,0.012616783777349939,0.005657644183456157
C,1443.3191775138246,1450.331559265085,2393.162968905721,2473.32377242845,2671.129837730457,0.08734294468646858,0.2646789362339548,9.631421726051048,0.011373542355054077,0.004262971760702805,0.023715856320847675
C,1581.0945166716833,1500.9898547574742,2533.9507278553638,2436.7286963170945,2640.253147561438,0.25549931328447817,0.1755604067308603,9.698046070191987,0.013163777705027567,0.007420163823190001,0.015477966126011074
C,1372.5628292591218,1525.450899847505,2435.781384045377,2426.576962018312,2517.228190570787,0.19539404946751313,0.09868222640878475,9.715749836760287,0.024666147593586076,-0.007898871514536035,0.021379405956915183
C,1561.8617789803388,1451.156649557646,2535.3416927540584,2581.199160666228,2652.5804381017388,0.011341502873934206,0.28446238135274315,9.742482521702733,0.020376561663089647,0.024291584930646294,0.008748368551512458
C,1463.2209086529833,1381.796346534528,2509.9285259121284,2617.324753836261,2448.813424530648,0.1651794163444645,0.1057059996189893,9.732254769083683,0.01875189180520236,0.020419829742658813,0.02168333754196744
C,1470.3416400011047,1319.0097889834285,2423.6923205878547,2601.195449273654,2576.6249384876396,0.011925457691032454,0.06236453729129928,9.675423172401393,0.015485496219799465,-0.003292630214894376,0.020710674650837094
C,1394.7801162605117,1409.6303751950218,2327.9387083388638,2295.2605713123603,2514.800017166324,0.2699783827018,0.26908540573802936,9.801211338892013,0.013590349886791225,0.023495298258062996,0.0067551283661518285
C,1563.716648489455,1535.4456537172377,2590.469697228548,2594.596531229691,2552.6481749495065,0.09765506206560429,0.10462732756418688,9.585328399903275,0.011899133698680342,0.01096068776084702,0.00014467536875195815
C,1514.951431457119,1543.649790238595,2517.747255743399,2514.4194958365206,2618.10924563143,0.2667176534391744,0.1401083499721919,9.606022636976947,0.03418060492513289,0.011322253761539731,-0.009843083634901743
C,1606.1268742561113,1488.0946416218078,2501.450132189518,2591.700675852917,2617.7515877483206,0.29625595484149425,0.11293027718299996,9.571216665562154,0.026827654189130024,0.02014496109820474,0.009207885583863151
C,1339.5213423227233,1541.0359578280431,2605.805633858279,2811.5587148112068,2484.746021694847,0.15750066570842144,0.46178383646818233,9.632883279012264,0.016103456931612983,0.013342542954727699,0.006840550370503398
C,1661.9123412037043,1396.918181833239,2464.8610047804373,2474.7173585727196,2509.837673572334,0.12795343641981663,0.13292082146089568,9.614942709175894,0.018898759380190713,0.015251793845346402,0.003737140014164867
C,1258.1507062886901,1411.9521197119427,2325.3354391458893,2511.8729352637984,2436.038306132977,0.1407993548576707,0.0954065208486103,9.55503068367443,0.022775407409450544,-0.005671172840337848,-0.005451059359239356
C,1506.6704258460566,1331.4516958020965,2424.0581981082405,2500.1917336417137,2427.03895687083,0.33338156276556175,0.1447376584057885,9.774076919693337,0.01421940129885501,0.020284548129239872,0.027931651952764654
C,1476.2914876949899,1510.521079819717,2700.358120318938,2415.415252204651,2690.6199406737323,0.02215399201748197,0.1631789991918526,9.718948844964151,0.029577245501789882,0.007477572671170687,0.007787161403836513
C,1591.811100189099,1505.9644503264688,2527.8914418665304,2506.5648404803055,2736.898956151829,0.2822497953613209,0.04250630662635189,9.889286022314868,0.026534644464722198,0.00964067976055055,-0.00668156086010248
C,1580.493923226688,1628.3673728473236,2716.951691567228,2431.3133163065304,2495.293314159169,0.10049675729373164,0.18504535948599146,9.601217183885131,0.017211544910313608,0.0058391813962764775,0.007111027929970591
C,1441.6139781205256,1709.5826756244794,2707.5991430864738,2374.7869742532757,2347.3617723865627,0.2841320636943584,0.10469943144859686,9.745166256917623,0.010725173351141528,0.011381033077974615,0.012927791594489202
C,1592.943571548116,1441.911002119653,2619.6212876866352,2596.715873971517,2432.666638709701,0.21178433150280054,-0.1527793932654075,9.531892189896162,0.012556647443913743,0.016585143796288872,0.015565248256267126
C,1334.169058912048,1594.2962822308361,2466.5273899499884,2456.4853982823597,2471.427099291374,0.27222154582188557,0.06946164994095874,9.640406265595704,0.021132895909416975,0.011634599634022063,-0.005400643532516703
C,1444.974955338416,1404.217433584273,2560.717090344453,2545.783798896795,2646.5076944948974,0.24806270724994867,0.18626186778407644,9.647888947373277,0.02548700215991962,0.018239156049912948,0.014193290543716448
C,1638.5773209199804,1334.5710411770538,2473.574846514852,2435.600430621896,2254.6629573630094,0.25794759083678553,0.16145796597118034,9.565030481431592,0.028904495974666447,0.0172431486066196,-0.012451000729864757
C,1347.8215797174216,1470.022342153531,2624.185082971117,2461.745161698386,2421.361288094812,0.21337690726855837,0.04101135709126391,9.759730107224758,0.020937015760223294,0.01203964712288825,0.024138144915986044
C,1538.2139107288137,1745.3309135212057,2522.7878990359804,2616.1433904276287,2319.734632589285,0.2143329664494885,-0.04112808864219558,9.654609630804941,0.02635039373035011,0.010801585574617939,0.00848097533947497
C,1430.5495432912435,1475.5040874716224,2370.577448289806,2418.1087809522064,2517.387341966811,0.08037515336331061,0.1841034406541977,9.634047827556872,0.03413677048296407,-0.0029263353192459512,0.005829639360256562
C,1429.6788035620305,1592.4484167464468,2455.3923748771012,2555.128118463044,2419.3748771374767,0.23029121080518564,0.04440939186298142,9.551020269565804,0.020201766319989305,0.011864672473465168,0.02588008007266679
C,1235.404084203231,1347.2099865053485,2473.9475316768526,2603.6773637365577,2466.610100306017,0.2025248486980134,0.11976858886443674,9.70818464803959,0.018585037372436573,-0.0027307312885015648,0.0025674327110633407
C,1567.538948756086,1323.9937516745745,2437.691175674418,2566.4225514240834,2514.0351531864076,0.2507688833518251,0.042977547500792905,9.60733402492059,-0.0030538876053103833,-0.007449952670954265,0.01313875374761454
C,1413.8690598153119,1308.703168995266,2548.041546665868,2558.6706699181022,2481.815300330593,0.2729369564909217,0.1433916918981074,9.717376115912586,0.03107419994321317,0.022197941129369743,0.0254356592347078
C,1567.7971117923942,1501.94136162306,2614.017112887346,2634.317405597464,2568.9057615613606,0.2519687116483719,0.1346227441828054,9.666093992010788,-0.007294352962192541,-0.005949774221518619,0.015715006117670093
C,1509.3509356272607,1458.8644600459277,2458.6032810318143,2355.3713613899713,2486.576427552444,0.21482011752743244,0.05801553077649411,9.76284114647262,0.029217041957888747,-0.004248399165997473,0.0010537565914275522
C,1453.9198104241343,1524.4818483823701,2382.7406252724577,2586.3310887674534,2497.208288618137,0.3735175570370052,0.11541631175653316,9.60761994509464,0.03209400490760386,0.008426239332431336,0.010925579833725987
C,1535.5146379802443,1461.466788804828,2620.019591055289,2476.6643606160387,2496.75502934137,0.1570614691776463,0.06255676995937295,9.66308499332608,0.02266099298978333,-0.017623101136401052,0.01874399015483796
C,1411.2971086165207,1480.5206035205517,2522.509320871614,2694.71265596241,2427.0411270096956,0.17385969015524455,0.2081759116239169,9.83701860506178,-0.0009816020849882506,-0.001571479261803073,0.015114468289048633
C,1532.2873342204223,1331.6475935964602,2552.199141859455,2593.507594644878,2440.935032742514,0.24886281476490568,0.22906785653290437,9.548725311757993,0.011281453853991269,0.01449337526523998,0.0018418008024162508
C,1580.7151014742722,1509.1690712285595,2774.3186685167316,2365.43521198756,2294.0925246766647,0.0907117192467068,0.030775372384852923,9.590132401530987,0.004255382347391635,0.02055282306850577,0.0007658942667874789
C,1379.295705208298,1434.6583548815065,2399.5101391924386,2370.7379280191117,2433.1718749188344,0.08162560642776273,-0.004153801059018497,9.698002966894519,0.003305713995808212,0.0011438349300098797,0.004496713916492679
C,1399.951331349005,1385.1109297592452,2428.7327153574633,2400.622051687812,2380.497659959722,0.23951523168258088,-0.012504265548600985,9.793884593458385,0.007619619626664987,0.006722673653554742,0.002162720311317255
C,1540.497084379569,1487.654600340011,2497.6930413552723,2498.3060622814505,2532.7603872641507,0.28719316493129166,0.24040986347579307,9.629055628272479,0.00624614166975038,0.0033786965146703077,0.008195394807778353
C,1535.7716847328772,1351.416207855364,2355.5812341611654,2525.356884244569,2373.7326275741475,0.246202675884985,0.07495211492219933,9.876537104248529,0.003384896043883586,0.02301162885105059,0.01292002521843388
C,1478.621824609735,1509.711974076082,2403.3912414293754,2509.4820738912704,2546.828265392418,0.05558107435683096,0.037434575038053725,9.681421404035472,0.034304449596775595,-0.007459728326255246,0.012108856761151997
C,1680.6225424518213,1486.0068523245372,2676.8521629789125,2532.193077578493,2468.4558388231912,0.1554183458065887,0.15460613164015344,9.530172621675742,0.016046371281767044,0.008286679985280609,0.005556859156604149
C,1652.3618194142648,1430.653400757348,2389.7862606823264,2394.8501923716008,2436.6536084996887,0.27505500979447073,-0.004140186958883962,9.806954664225058,0.012931608080048477,0.018064389589148182,0.008622571079486793
C,1524.6343444616944,1442.270399908045,2550.2999252612944,2370.9731440958185,2368.801726915393,0.21610022913190677,0.07052726997395549,9.593681905499253,0.02586413843738706,0.008245362806540571,-0.0011632008888793292
C,1450.6823336011896,1603.6075653492062,2661.7506035756414,2541.6671862860294,2485.4970352393766,0.11509118707936694,-0.056480021140819514,9.716898200075812,0.018526732615862296,0.010056703723447488,0.01784527164028999
C,1511.3588562413922,1482.5231674004517,2658.757783981294,2677.0863035411085,2603.699500982533,0.061703064706056354,0.0022862551270899367,9.705255416808194,0.010127965117318775,0.011007295690221136,0.006483987827347125
C,1571.6595648364769,1401.5041839969106,2284.23081540811,2433.272644854256,2522.4187678863937,0.2592484241617007,0.1985874500066476,9.725139024348005,0.029001617290718075,0.023083034180043663,-0.00036384260851378934
C,1473.504209699133,1679.8892175086828,2375.1957084247633,2520.075673490261,2561.1696437121373,0.2230329459442537,0.08495350869968124,9.84381328820313,0.013643977053412496,-8.29155202335171e-05,-0.003034627933940189
C,1371.1447361700161,1687.478278586009,2315.5556133395444,2793.4283525114724,2320.9205324697864,0.11872382577240592,0.0874659073872149,9.771725890701273,0.020938040341105225,0.004493846483137815,0.02307558152053182
C,1452.4717947223344,1409.6312051171349,2450.3922043726316,2548.2256014888785,2510.2318525984547,0.3044657270530709,0.0401760340265128,9.589289737421232,0.01381872220252545,0.003827727370237146,0.0044278244287252735
C,1430.6566725819002,1573.0263283625713,2628.147607997629,2454.7910496940644,2425.7850154779603,0.09551386123446991,0.11924722608888258,9.647173907468078,0.034183438149878675,0.019066460888163203,-0.0006421815909237894
C,1488.4860455870628,1446.3716132959848,2596.3056872401803,2464.7656234470583,2454.0461574992346,0.24082773101225824,0.18239587882219366,9.616811369050836,0.016463131158251383,-0.0040547742847248085,0.01821021639206742
C,1537.49152237758,1334.4222936216406,2570.503143209916,2455.6630605233795,2511.1930430023654,0.19457539522978673,0.20579790390299887,9.636274234880474,0.02901958508816443,0.018020308523017087,0.006244633236035038
C,1516.667502729877,1617.160974817658,2524.135376891544,2515.622528308438,2498.4551257044977,0.14524196360762937,0.13089157731817463,9.46310549521175,0.024146144512125947,0.004277157541151012,0.02548843285343861
C,1375.5877908851949,1466.9239956861743,2511.778569622207,2820.010474061663,2310.8615420438923,0.15608926835239564,-0.029929689196947745,9.722100048404057,0.034863014123757016,0.010063389854491558,0.03305792083770721
C,1487.9692374483961,1524.2971707392232,2368.1834870086896,2485.2311491841438,2463.2371681536656,0.3441653551326609,0.1188948465236483,9.818416533512098,0.016919151767340834,0.010478347894744652,0.024860111666825384
C,1557.154605511377,1591.9190409070384,2491.064616131391,2409.4269327554075,2630.1824620214784,0.1975195962394578,0.25777155875758895,9.62522247480279,0.02189940037549593,0.010720201680925606,0.0037485169647360674
C,1523.4999958791689,1619.9480635487266,2475.415978643176,2572.248364435587,2431.145148203436,0.27352524790266036,0.17420751749770727,9.574284077228524,0.02215184997368535,-0.005618641805116285,0.017092534371549156
C,1530.029345484727,1429.1319586829734,2620.096505847895,2706.7432295303456,2726.467961067239,0.1944737512280194,0.30566283395597693,9.86823806872701,0.029150959878067602,0.0028241392713886596,0.01471495762016942
C,1650.3248329661535,1496.9870083090682,2587.294970250053,2593.467380951075,2415.1888346751084,0.07643199847519953,0.20655293380492035,9.91049737013287,0.017734705555679253,0.00915042765049077,0.0021485084240378
C,1332.0054469212464,1318.7887751501394,2377.6045408825153,2464.6510649353495,2494.8335634531713,0.23767345767871095,0.052107669320757756,9.688861296612435,0.02536185940867102,-0.012706548118903397,0.008897035127002904
C,1454.6421345577235,1539.6918278844182,2513.4266100817276,2409.029747630011,2622.897000418868,0.23999345601299535,0.0222438026972899,9.712099564995784,-0.0015724412654667674,0.00955732084977356,-0.003312634382019017
C,1443.57512413049,1510.899313447547,2544.6674958798667,2644.342343153053,2341.9115636672295,0.2802778118607327,0.14123868496406455,9.847211144361184,0.005577144075257941,0.025530752261447503,0.013346600255465503
C,1470.6130567076154,1750.5324027588065,2459.5131152611734,2555.016403373172,2259.334033347631,0.08977101626712547,0.23643215114290209,9.563422485081404,0.015255460711471689,0.01022671030686103,0.010182372918108768
C,1345.1490622980748,1478.921382149959,2563.17260578846,2471.162792589838,2437.080423005466,-0.04964178998148966,0.06131202237526186,9.801005673791375,0.023502980864414158,0.020833646144598802,0.02479853273616618
C,1721.104018582279,1544.9512694964476,2524.428987396395,2437.8014630160646,2455.8139047367677,0.32563406287074725,0.2816427272828982,9.534563941136824,0.02767626083559138,0.016057590730095474,0.01920948639000435
C,1390.1551567687864,1491.4661534083086,2593.5688357500712,2631.5016822429616,2344.6051982558542,0.2265577091460103,0.28087465187337013,9.622639049698078,0.004423046970295082,-0.008598190638144576,0.0006606197884701862
C,1524.6343177518536,1357.6747152875676,2450.6802134877053,2510.828986740766,2514.4855955811795,0.05992436659269118,0.09587652418640254,9.741387857309817,0.02548570896892647,0.017290103705667352,0.011804065176247875
C,1374.270608798419,1411.3472046817124,2480.1169641836796,2478.1146588932374,2663.5014203706237,0.11694711800663568,0.07151338348939609,9.664964417124395,0.021879089773826254,0.005368378778295713,0.0030038558955047543
C,1572.6007943606342,1504.64754865418,2633.2645619600103,2386.2731518740175,2612.5536897907846,-0.052203432125888516,0.3408729647722023,9.78697305632447,0.014315922537882865,0.0082021037538559,0.0028873202367883342
C,1396.5495374725613,1455.4618215243822,2549.986837979586,2354.97263239962,2307.1570732740497,0.1335796986472586,0.25143386247872634,9.775138258626981,0.013880661971080354,-0.008485162829901348,0.01267516799937018
C,1442.5067190834234,1385.7739888215035,2281.002560227334,2470.0331178048596,2385.6515248113756,0.36766215933561625,0.15211290194790072,9.765223759634434,0.01662747821043151,0.00041268744531277983,0.004007372955169845
C,1582.1699410597646,1433.4366113931317,2617.3339388895492,2309.588541936863,2610.1619601473412,0.29957643878983775,0.025019025376295412,9.726514752414108,0.029151919288195792,0.033988587517645746,0.025289200375158746
C,1648.0163789136616,1487.8973242643322,2569.1046265748746,2569.417817867005,2527.1598124450106,0.08061046589311685,0.35051586955653324,9.65975092427061,0.015689836815558876,0.01239955731824295,-0.001117436524323348
C,1443.9307399521294,1518.582107088736,2529.9751068679543,2633.641332604864,2636.00867175157,0.1509855886261449,-0.18339163168426656,9.700772864590993,0.012001078850954007,0.015348874602889126,0.004312865984103084
C,1479.7870915496028,1606.319769435661,2430.798106500823,2395.910902348685,2343.6151293502476,0.37566072435790204,0.14401873914395644,9.859176556405883,0.018992096085748374,-0.0027736704114116727,-0.008138651811992142
C,1497.4059164584096,1409.3644945145395,2490.144817727771,2594.3026102367353,2540.8838029410526,0.18431659685338544,0.06811881019249666,9.715440545479884,0.0332174219422709,-0.002272300478556453,0.008681653616108318
C,1580.5428197527858,1509.9404692980943,2478.36432563536,2620.0428331846974,2763.374402680554,0.019604455090934503,0.020122420492110313,9.680014326676956,0.04111077205645351,0.007359294665128125,0.001259885797144547
C,1498.175678678996,1457.454631736483,2415.0101708101856,2633.33554198679,2632.121479486795,0.1346371112709186,0.0345756803196811,9.835536976385235,0.018421902492345786,0.010459743591518637,0.025235198653283147
C,1513.2960623424074,1537.3308242194323,2566.8071233948103,2377.326790345347,2529.5352507245775,-0.04902777262655014,0.21075876104247362,9.682189020462737,0.02855679785748572,0.02619606387546812,0.029184046894852135
C,1525.2443858310596,1534.0902509130617,2571.6641809103844,2347.9362101462243,2413.5753262057615,0.18001901857097038,0.06524803441711394,9.663955841639531,0.022142979162864694,0.018992018423900185,0.00017929694424321553
C,1287.7500361461996,1639.0310667465521,2307.009140180949,2488.1536892592044,2514.891852687396,0.11278086640415208,-0.03899852487110139,9.580525903680487,0.02071517155372415,0.0006408237031418941,0.004556350641368809
C,1388.8530263685302,1461.8067190976546,2541.481866664846,2419.7560952554873,2424.176353880422,0.23211238030150538,-0.04491727594998646,9.709298873786182,0.027752419147951107,0.015790933762451057,-0.002095424450229413
C,1569.0289878504618,1573.5999519871377,2518.185667401804,2569.3425761470767,2422.465263787254,0.187668660314101,0.27866990073658343,9.57294610779107,0.023624197197170727,0.029111798979326198,0.011873463078237442
C,1514.5127314138335,1534.575835936694,2407.3859549193303,2466.877955498706,2441.441873120922,0.4885501024206046,0.06247210245298466,9.728580066000642,0.03827543998913392,-0.0007547618158153732,-0.012280565418124218
C,1445.9249522407272,1699.0163523254835,2598.9725035729616,2464.66443148061,2484.1174920058343,0.2631324947819628,0.16547225299205282,9.674202275866866,0.02581968304605776,0.012086140259286423,0.006852154254297724
C,1385.2798542009516,1544.3416610238398,2521.4992609682827,2668.0777886705278,2410.189607272265,0.14009718546932037,0.05584913882566072,9.69157846783656,0.007004895320097418,0.019152760510692885,0.003501284298138502
C,1471.676966454642,1548.0922979790353,2486.5201800077316,2610.9216095941724,2429.33294821787,0.23392893243955157,0.29079920534551573,9.645886682630445,0.047002693125006434,0.02378787157456584,0.0042408795435485355
C,1479.57292856638,1520.5046275863099,2444.1128797228266,2410.3347052316176,2397.394777533165,0.17104219099688367,-0.08480206110214777,9.682968954481778,0.008824807600902018,0.014694943485576994,-0.0017643269242966306
C,1493.4372335099645,1568.82509562187,2697.707196162698,2462.788721910043,2475.4305006806744,0.26258458673779805,0.04045478698494009,9.853404224121503,0.007160579965919869,0.0025508259163777736,0.014980895359467387
